Heaven/Earth 0=Heaven; 1=Earth,Condition: 1= In Play; 2=Out of play; 3=leading; 4=trailing,Number Requested,"X: 1=Left most column, counting to the right to max of 2 or 3","Y: 1 equals top row (i.e., out of play heavenly bead), counting downwards to 7. ",Correct on Search task? Trials weith incorrect search responses were excluded from analysis,RT,Abacus entered:Number child entered for abacus reading,Correct on Abacus: 1=correct; 0=incorrect,"Number of columns: occasionally you will see 0s in this column, this means the participant was in a pilot version with 4 columns and should be excluded. ",Subject Number: Assigned when extracted from .mat instead of alpha numeric number to make some things in life easier,<3Std Dev: removing outliers (2s). Calculated in linear space. Needs to be redone in log space,Inout or Leading trailing trial1,1,699,2,4,1,4.81,699,1,3,101,1,IN/OUT1,1,25,1,3,1,2.08,25,1,2,101,1,IN/OUT1,2,907,2,4,1,5.79,907,1,3,101,1,IN/OUT1,3,77,1,7,1,2.5,77,1,3,101,1,leading/trailing0,4,840,3,1,1,2.91,840,1,3,101,1,leading/trailing0,3,77,1,1,1,4.36,77,1,3,101,1,leading/trailing0,1,90,1,2,1,3.29,90,1,2,101,1,IN/OUT1,3,6,1,5,1,3.49,6,1,2,101,1,leading/trailing1,2,792,3,7,1,2.74,792,1,3,101,1,IN/OUT1,1,223,1,3,1,3.23,223,1,3,101,1,IN/OUT1,3,3,1,5,1,2.43,3,1,2,101,1,leading/trailing1,1,20,1,4,1,2.6,20,1,2,101,1,IN/OUT0,2,525,2,1,1,4.39,525,1,3,101,1,IN/OUT1,1,41,1,4,1,1.98,41,1,2,101,1,IN/OUT1,3,6,1,7,1,3.53,6,1,2,101,1,leading/trailing0,1,28,2,2,1,2.4,28,1,2,101,1,IN/OUT1,3,77,1,5,1,2.11,77,1,3,101,1,leading/trailing0,1,119,3,2,1,3.32,119,1,3,101,1,IN/OUT0,3,68,1,1,1,3.63,68,1,3,101,1,leading/trailing1,3,3,1,6,1,2.85,3,1,2,101,1,leading/trailing0,4,90,2,1,1,2.12,90,1,2,101,1,leading/trailing1,2,200,2,7,1,3.43,200,1,3,101,1,IN/OUT1,2,51,1,4,1,1.9,51,1,3,101,1,IN/OUT1,2,12,1,5,1,2.66,12,1,2,101,1,IN/OUT0,2,411,2,1,1,4.28,411,1,3,101,1,IN/OUT1,1,459,1,4,1,4.04,459,1,3,101,1,IN/OUT1,1,189,3,3,1,2.15,189,1,3,101,1,IN/OUT1,4,990,3,5,1,1.91,990,1,3,101,1,leading/trailing1,2,87,1,7,1,2.69,87,1,2,101,1,IN/OUT1,4,810,3,6,1,2.52,810,1,3,101,1,leading/trailing1,2,764,1,6,1,1.81,764,1,3,101,1,IN/OUT1,1,989,3,3,1,3.64,989,1,3,101,1,IN/OUT0,1,603,1,2,1,2.56,603,1,3,101,1,IN/OUT1,3,8,1,6,1,2.41,8,1,2,101,1,leading/trailing1,4,20,2,6,1,2.39,20,1,2,101,1,leading/trailing1,1,30,1,3,1,2.12,30,1,2,101,1,IN/OUT1,2,866,2,6,1,3.77,866,1,3,101,1,IN/OUT0,2,63,3,1,1,5.8,63,1,3,101,1,IN/OUT1,3,45,1,5,1,3.56,45,1,3,101,1,leading/trailing1,2,694,1,6,1,2.42,694,1,3,101,1,IN/OUT1,1,24,2,4,1,2.22,24,1,2,101,1,IN/OUT1,4,180,3,6,1,3.31,180,1,3,101,1,leading/trailing0,2,35,1,1,1,1.84,35,1,2,101,1,IN/OUT1,1,60,2,3,1,3.05,60,1,3,101,1,IN/OUT0,1,737,3,2,1,3.4,737,1,3,101,1,IN/OUT1,1,377,3,4,1,2.14,477,0,3,101,1,IN/OUT0,4,70,2,1,1,6.39,70,1,2,101,1,leading/trailing0,3,5,1,1,1,3.56,5,1,2,101,1,leading/trailing1,4,40,2,5,1,3.66,40,1,2,101,1,leading/trailing1,3,39,1,6,1,3.03,39,1,3,101,1,leading/trailing1,4,90,2,4,1,2.25,90,1,2,101,1,leading/trailing1,3,4,1,7,1,1.92,4,1,2,101,1,leading/trailing1,3,2,1,4,1,2.53,2,1,2,101,1,leading/trailing0,3,69,1,1,1,2.66,69,1,3,101,1,leading/trailing1,3,81,1,7,1,2.26,610,0,3,101,1,leading/trailing0,3,7,1,1,1,6.49,7,1,2,101,1,leading/trailing1,1,230,1,4,1,2.96,230,1,3,101,1,IN/OUT0,4,70,2,1,1,3.74,70,1,2,101,1,leading/trailing1,2,93,2,7,1,3.08,93,1,2,101,1,IN/OUT0,3,4,1,1,1,3.71,4,1,2,101,1,leading/trailing1,2,469,2,6,1,3.45,469,1,3,101,1,IN/OUT1,4,70,2,7,1,1.95,70,1,2,101,1,leading/trailing1,3,77,1,6,0,2.64,77,1,3,101,1,leading/trailing1,1,82,2,3,1,3.54,82,1,2,101,1,IN/OUT0,2,62,3,1,1,5.04,62,1,3,101,1,IN/OUT1,1,64,2,4,1,2.07,64,1,2,101,1,IN/OUT1,4,150,3,6,1,2.49,150,1,3,101,1,leading/trailing0,4,470,3,1,1,3.03,470,1,3,101,1,leading/trailing1,2,67,1,7,1,2.44,67,1,2,101,1,IN/OUT1,4,50,2,6,1,2,50,1,2,101,1,leading/trailing0,4,710,3,1,1,2.82,710,1,3,101,1,leading/trailing1,4,650,3,4,1,1.64,650,1,3,101,1,leading/trailing1,4,530,3,4,1,1.7,530,1,3,101,1,leading/trailing1,4,850,3,6,1,3.46,850,1,3,101,1,leading/trailing0,2,45,1,1,1,5.04,45,1,2,101,1,IN/OUT1,2,33,1,7,1,6.12,33,1,2,101,1,IN/OUT1,2,155,2,4,1,1.86,155,1,3,101,1,IN/OUT1,4,30,2,6,1,3.09,30,1,2,101,1,leading/trailing0,3,4,1,1,1,1.93,4,1,2,101,1,leading/trailing1,3,4,1,5,1,1.98,4,1,2,101,1,leading/trailing1,4,480,3,5,1,3.9,480,1,3,101,1,leading/trailing1,3,92,1,5,1,3.58,92,1,3,101,1,leading/trailing1,2,79,1,6,1,4.62,79,1,2,101,1,IN/OUT1,2,28,1,7,1,3.42,28,1,2,101,1,IN/OUT1,4,30,2,7,1,1.53,30,1,2,101,1,leading/trailing1,4,30,2,4,1,1.61,30,1,2,101,1,leading/trailing1,3,69,1,4,1,4.42,69,1,3,101,1,leading/trailing1,4,20,2,6,1,3.59,20,1,2,101,1,leading/trailing0,4,260,3,1,1,2.59,260,1,3,101,1,leading/trailing1,4,50,2,5,1,2.29,50,1,2,101,1,leading/trailing0,2,81,2,1,1,3.4,81,1,2,101,1,IN/OUT1,2,20,2,5,1,3.21,20,1,2,101,1,IN/OUT1,4,520,3,5,1,2.23,520,1,3,101,1,leading/trailing1,1,91,1,6,1,1.69,91,1,2,101,1,IN/OUT1,1,51,2,3,1,1.63,51,1,2,101,1,IN/OUT0,4,80,2,1,1,1.93,80,1,2,101,1,leading/trailing1,3,24,1,4,1,2.56,24,1,3,101,1,leading/trailing1,3,66,1,4,1,3.09,66,1,3,101,1,leading/trailing1,1,311,1,3,1,2.56,311,1,3,101,1,IN/OUT1,4,40,2,4,1,2.87,40,1,2,101,1,leading/trailing1,1,86,1,5,1,2.27,86,1,2,101,1,IN/OUT1,4,810,3,7,1,3.98,810,1,3,101,1,leading/trailing0,1,695,1,2,1,2.91,695,1,3,101,1,IN/OUT0,2,4,1,1,1,1.97,4,1,2,101,1,IN/OUT1,4,40,2,7,1,2.01,40,1,2,101,1,leading/trailing1,1,15,1,3,1,1.51,15,1,2,101,1,IN/OUT1,2,16,2,5,1,1.95,16,1,2,101,1,IN/OUT0,3,79,1,1,1,3.5,79,1,3,101,1,leading/trailing1,3,2,1,7,1,1.63,2,1,2,101,1,leading/trailing1,1,562,2,3,1,2.96,562,1,3,101,1,IN/OUT1,1,944,3,6,1,2.19,944,1,3,101,1,IN/OUT0,1,51,1,2,1,1.79,51,1,2,101,1,IN/OUT1,2,7,1,5,1,1.67,7,1,2,101,1,IN/OUT1,3,4,1,6,1,2.5,4,1,2,101,1,leading/trailing1,4,840,3,7,1,2.91,840,1,3,101,1,leading/trailing1,2,461,2,7,1,2.46,461,1,3,101,1,IN/OUT1,3,43,1,6,1,2.02,43,1,3,101,1,leading/trailing1,1,360,1,4,1,2.64,360,1,3,101,1,IN/OUT1,2,809,2,7,1,2.58,809,1,3,101,1,IN/OUT1,1,60,1,3,1,1.58,60,1,2,101,1,IN/OUT1,3,1,1,6,1,2.11,1,1,2,101,1,leading/trailing1,3,69,1,6,1,3.13,69,1,3,101,1,leading/trailing1,3,5,1,7,1,2.8,5,1,2,101,1,leading/trailing0,1,35,2,2,1,3.7,35,1,2,101,1,IN/OUT1,2,41,2,7,1,1.93,41,1,2,101,1,IN/OUT1,2,319,2,5,1,2.68,319,1,3,101,1,IN/OUT1,4,520,3,7,1,1.7,520,1,3,101,1,leading/trailing1,2,97,2,7,1,3,97,1,2,101,1,IN/OUT1,2,313,2,6,1,5.98,313,1,3,102,1,IN/OUT1,2,763,1,6,1,4.08,763,1,3,102,1,IN/OUT0,4,20,2,1,1,3.17,20,1,2,102,1,leading/trailing1,4,140,3,7,1,2.29,140,1,3,102,1,leading/trailing1,1,821,2,4,1,2.27,821,1,3,102,1,IN/OUT1,2,1,1,7,1,2.51,1,1,2,102,1,IN/OUT1,2,5,2,6,1,6.2,5,1,2,102,1,IN/OUT1,3,6,1,6,1,1.86,6,1,2,102,1,leading/trailing0,2,162,1,1,1,2.83,162,1,3,102,1,IN/OUT1,4,150,3,7,1,2.08,150,1,3,102,1,leading/trailing1,1,855,1,3,1,2.91,855,1,3,102,1,IN/OUT1,2,795,3,4,1,3.79,795,1,3,102,1,IN/OUT1,4,630,3,5,1,4.01,630,1,3,102,1,leading/trailing1,4,70,2,4,1,2.34,70,1,2,102,1,leading/trailing1,3,8,1,7,1,6.79,8,1,2,102,1,leading/trailing1,3,7,1,4,1,1.82,7,1,2,102,1,leading/trailing1,1,86,1,4,1,4.29,86,1,2,102,1,IN/OUT0,4,850,3,1,1,3.34,850,1,3,102,1,leading/trailing1,4,670,3,5,1,2.52,670,1,3,102,1,leading/trailing1,4,50,2,5,1,2.58,50,1,2,102,1,leading/trailing0,4,40,2,1,1,2.08,40,1,2,102,1,leading/trailing0,2,29,1,1,1,1.66,29,1,2,102,1,IN/OUT1,1,848,2,5,1,3,848,1,3,102,1,IN/OUT1,4,630,3,4,1,2.23,630,1,3,102,1,leading/trailing0,4,80,2,1,1,2.25,80,1,2,102,1,leading/trailing1,2,75,2,4,1,2.92,75,1,2,102,1,IN/OUT1,2,56,1,6,1,3.31,56,1,2,102,1,IN/OUT0,2,505,2,1,1,2.9,505,1,3,102,1,IN/OUT0,3,1,1,1,1,1.66,1,1,2,102,1,leading/trailing1,3,21,1,5,1,2.51,21,1,3,102,1,leading/trailing1,3,8,1,6,1,2.58,8,1,2,102,1,leading/trailing1,1,96,2,3,1,2.17,96,1,2,102,1,IN/OUT0,1,187,2,2,1,2.56,187,1,3,102,1,IN/OUT0,3,9,1,1,1,2.07,9,1,2,102,1,leading/trailing1,2,820,3,5,1,2.45,820,1,3,102,1,IN/OUT1,1,983,3,3,1,2.22,983,1,3,102,1,IN/OUT1,1,52,2,4,1,1.65,52,1,2,102,1,IN/OUT0,2,15,1,1,1,1.56,15,1,2,102,1,IN/OUT1,3,66,1,6,1,4.47,66,1,3,102,1,leading/trailing1,3,75,1,7,1,2.55,75,1,3,102,1,leading/trailing1,1,2,2,3,1,1.29,2,1,2,102,1,IN/OUT1,2,698,1,6,1,2.37,698,1,3,102,1,IN/OUT0,4,80,2,1,1,1.78,80,1,2,102,1,leading/trailing1,1,607,3,4,1,1.94,607,1,3,102,1,IN/OUT1,1,52,2,4,1,1.41,52,1,2,102,1,IN/OUT1,1,640,1,3,1,2.85,640,1,3,102,1,IN/OUT0,1,64,1,2,1,3.66,64,1,2,102,1,IN/OUT1,3,13,1,4,1,1.71,13,1,3,102,1,leading/trailing1,2,58,1,7,1,2.19,58,1,2,102,1,IN/OUT1,2,16,3,6,1,2.48,16,1,3,102,1,IN/OUT1,1,511,3,3,1,3.23,511,1,3,102,1,IN/OUT1,2,87,1,7,1,3.03,87,1,2,102,1,IN/OUT0,1,871,2,2,1,2.2,821,0,3,102,1,IN/OUT0,1,615,1,2,1,6.1,615,1,3,102,1,IN/OUT1,3,54,1,6,1,2.75,54,1,3,102,1,leading/trailing1,2,551,2,7,1,3.06,551,1,3,102,1,IN/OUT1,2,505,1,5,1,2.76,505,1,3,102,1,IN/OUT1,4,10,2,4,1,1.81,10,1,2,102,1,leading/trailing1,4,90,2,5,1,2.27,90,1,2,102,1,leading/trailing1,2,70,2,6,1,2.68,70,1,2,102,1,IN/OUT1,3,68,1,4,1,1.83,68,1,3,102,1,leading/trailing1,3,81,1,4,1,1.59,81,1,3,102,1,leading/trailing0,3,4,1,1,1,2,4,1,2,102,1,leading/trailing1,3,7,1,5,1,2.92,7,1,2,102,1,leading/trailing1,4,80,2,5,1,2.11,80,1,2,102,1,leading/trailing1,1,751,3,3,1,2.64,751,1,3,102,1,IN/OUT0,2,52,2,1,1,2.51,52,1,2,102,1,IN/OUT1,4,90,2,4,1,3.02,90,1,2,102,1,leading/trailing1,4,750,3,6,1,3.69,750,1,3,102,1,leading/trailing1,4,310,3,7,1,2.49,310,1,3,102,1,leading/trailing1,3,8,1,5,1,2.39,8,1,2,102,1,leading/trailing0,3,58,1,1,1,1.9,58,1,3,102,1,leading/trailing1,2,81,2,7,1,2.98,81,1,2,102,1,IN/OUT1,2,66,2,5,1,2.94,66,1,2,102,1,IN/OUT0,3,88,1,1,1,2.12,88,1,3,102,1,leading/trailing1,4,480,3,6,1,4.43,480,1,3,102,1,leading/trailing1,2,547,1,4,1,2.59,547,1,3,102,1,IN/OUT1,1,74,2,3,1,1.75,74,1,2,102,1,IN/OUT0,1,87,2,2,1,1.76,87,1,2,102,1,IN/OUT0,4,980,3,1,1,3.58,980,1,3,102,1,leading/trailing1,2,998,3,7,1,4.47,998,1,3,102,1,IN/OUT1,3,8,1,4,1,2.02,8,1,2,102,1,leading/trailing0,3,8,1,1,1,2.58,8,1,2,102,1,leading/trailing1,2,76,1,7,1,1.98,76,1,2,102,1,IN/OUT1,2,63,1,7,1,1.76,63,1,2,102,1,IN/OUT1,1,41,1,5,1,1.87,41,1,2,102,1,IN/OUT1,3,2,1,7,1,2.52,2,1,2,102,1,leading/trailing0,3,97,1,1,1,2.44,97,1,3,102,1,leading/trailing1,3,57,1,6,1,2.08,57,1,3,102,1,leading/trailing0,1,36,2,2,1,2.38,36,1,2,102,1,IN/OUT0,2,49,1,1,1,3.02,49,1,2,102,1,IN/OUT1,1,41,1,5,1,1.31,41,1,2,102,1,IN/OUT1,3,2,1,7,1,2.9,2,1,2,102,1,leading/trailing1,3,83,1,7,1,2.4,83,1,3,102,1,leading/trailing1,2,235,1,6,1,3.91,235,1,3,102,1,IN/OUT1,1,45,1,4,1,1.62,45,1,2,102,1,IN/OUT1,4,410,3,4,1,3.19,410,1,3,102,1,leading/trailing1,4,50,2,5,1,1.59,50,1,2,102,1,leading/trailing1,1,200,1,3,1,2.75,200,1,3,102,1,IN/OUT0,3,29,1,1,1,2.79,29,1,3,102,1,leading/trailing1,2,23,1,7,1,1.83,23,1,2,102,1,IN/OUT1,4,10,2,7,1,1.86,10,1,2,102,1,leading/trailing1,2,182,1,6,1,1.88,182,1,3,102,1,IN/OUT0,2,438,2,1,1,2.38,438,1,3,102,1,IN/OUT1,3,5,1,5,1,2.78,5,1,2,102,1,leading/trailing1,3,97,1,7,1,11,97,1,3,102,1,leading/trailing1,4,740,3,5,1,3.34,740,1,3,102,1,leading/trailing0,1,45,3,2,1,2.26,45,1,3,102,1,IN/OUT1,1,394,3,6,1,2.78,394,1,3,102,1,IN/OUT1,3,93,1,6,1,2.65,93,1,3,102,1,leading/trailing1,4,580,3,5,1,1.88,580,1,3,102,1,leading/trailing1,4,90,2,7,1,4.61,90,1,2,102,1,leading/trailing1,3,5,1,5,1,2.31,5,1,2,102,1,leading/trailing1,1,76,1,4,1,2.71,76,1,2,102,1,IN/OUT1,4,30,2,4,1,1.58,30,1,2,102,1,leading/trailing1,3,13,1,6,1,2.1,13,1,3,102,1,leading/trailing1,1,758,1,3,1,3.43,758,1,3,102,1,IN/OUT0,4,540,3,1,1,2.73,540,1,3,102,1,leading/trailing0,4,460,3,1,1,1.99,460,1,3,102,1,leading/trailing1,4,70,2,5,1,2.54,70,1,2,102,1,leading/trailing1,1,158,3,5,1,6.13,158,1,3,102,1,IN/OUT1,4,360,3,4,1,2,360,1,3,102,1,leading/trailing1,3,5,1,5,1,1.78,5,1,2,102,1,leading/trailing1,1,91,1,5,1,1.75,91,1,2,102,1,IN/OUT0,1,51,1,2,1,2.1,51,1,2,102,1,IN/OUT1,1,99,1,3,1,2.35,99,1,2,102,1,IN/OUT1,4,60,2,5,1,1.84,60,1,2,102,1,leading/trailing0,2,379,1,1,1,3.51,329,0,3,102,1,IN/OUT1,3,8,1,6,1,4.81,8,1,2,103,1,leading/trailing0,3,5,1,1,1,5.48,5,1,2,103,1,leading/trailing0,1,746,1,2,1,4.58,746,1,3,103,1,IN/OUT0,2,41,1,1,1,2.98,41,1,2,103,1,IN/OUT1,4,90,2,7,1,3.3,90,1,2,103,1,leading/trailing1,1,953,3,5,1,5.2,953,1,3,103,1,IN/OUT0,3,4,1,1,1,3.12,4,1,2,103,1,leading/trailing1,1,6,2,3,1,1.47,6,1,2,103,1,IN/OUT1,1,177,3,4,1,2.15,177,1,3,103,1,IN/OUT1,2,5,1,7,1,2.51,5,1,2,103,1,IN/OUT1,4,40,2,5,1,3.79,40,1,2,103,1,leading/trailing1,3,83,1,6,1,2.89,83,1,3,103,1,leading/trailing1,1,49,1,4,1,2.24,49,1,2,103,1,IN/OUT1,4,80,2,6,1,2.11,80,1,2,103,1,leading/trailing1,1,157,1,3,1,3.45,157,1,3,103,1,IN/OUT1,2,52,2,6,1,2.71,52,1,3,103,1,IN/OUT1,4,310,3,7,1,1.91,310,1,3,103,1,leading/trailing1,2,303,2,5,1,1.6,303,1,3,103,1,IN/OUT1,3,38,1,5,1,3.11,38,1,3,103,1,leading/trailing0,1,417,3,2,1,3.02,417,1,3,103,1,IN/OUT1,3,15,1,5,1,3.61,15,1,3,103,1,leading/trailing0,2,612,2,1,1,2.84,612,1,3,103,1,IN/OUT1,1,12,2,3,1,2.37,12,1,2,103,1,IN/OUT1,4,610,3,7,1,2.03,610,1,3,103,1,leading/trailing0,4,80,2,1,1,2.58,80,1,2,103,1,leading/trailing1,2,62,1,6,1,1.62,62,1,2,103,1,IN/OUT1,4,240,3,6,1,2.51,24,0,3,103,1,leading/trailing1,4,520,3,5,1,4.86,520,1,3,103,1,leading/trailing0,4,490,3,1,1,2.64,490,1,3,103,1,leading/trailing1,2,27,2,7,1,2.39,27,1,2,103,1,IN/OUT1,2,33,1,7,1,2.47,33,1,2,103,1,IN/OUT0,4,130,3,1,1,3.04,130,1,3,103,1,leading/trailing1,4,160,3,4,1,2.87,160,1,3,103,1,leading/trailing1,4,630,3,7,1,2.37,630,1,3,103,1,leading/trailing1,3,72,1,6,1,2.59,72,1,3,103,1,leading/trailing1,2,740,1,7,1,2.55,740,1,3,103,1,IN/OUT1,1,612,1,3,1,2.23,612,1,3,103,1,IN/OUT0,4,60,2,1,1,2.3,60,1,2,103,1,leading/trailing1,3,68,1,5,1,5.19,68,1,3,103,1,leading/trailing1,3,5,1,4,1,2.06,5,1,2,103,1,leading/trailing0,3,5,1,1,1,3.81,5,1,2,103,1,leading/trailing1,3,2,1,4,1,3.28,2,1,2,103,1,leading/trailing0,4,90,2,1,1,3.25,90,1,2,103,1,leading/trailing1,2,842,3,7,1,5.27,842,1,3,103,1,IN/OUT1,2,37,2,6,1,3.95,37,1,2,103,1,IN/OUT1,4,650,3,7,1,6.24,650,1,3,103,1,leading/trailing1,1,318,3,3,1,5.42,318,1,3,103,1,IN/OUT1,4,280,3,5,1,2.04,280,1,3,103,1,leading/trailing1,2,696,1,7,1,3.24,696,1,3,103,1,IN/OUT1,3,34,1,4,1,2.42,34,1,3,103,1,leading/trailing1,4,50,2,4,1,2.79,50,1,2,103,1,leading/trailing1,3,3,1,6,1,3.25,3,1,2,103,1,leading/trailing1,3,9,1,7,1,2.2,9,1,2,103,1,leading/trailing1,2,80,2,4,1,4.45,80,1,2,103,1,IN/OUT1,4,30,2,4,1,2.15,30,1,2,103,1,leading/trailing1,2,82,2,6,1,1.74,82,1,2,103,1,IN/OUT1,2,926,2,7,1,3.81,926,1,3,103,1,IN/OUT0,1,88,2,2,1,2.1,88,1,2,103,1,IN/OUT0,4,30,2,1,1,2.87,30,1,2,103,1,leading/trailing0,1,36,2,2,1,1.99,36,1,2,103,1,IN/OUT1,1,422,3,4,1,2.13,422,1,3,103,1,IN/OUT1,4,10,2,6,1,2.56,10,1,2,103,1,leading/trailing1,3,77,1,5,1,3.25,77,1,3,103,1,leading/trailing1,1,18,2,5,1,2.71,18,1,2,103,1,IN/OUT1,4,80,2,4,1,3.34,80,1,2,103,1,leading/trailing1,2,568,1,5,1,3.61,568,1,3,103,1,IN/OUT1,3,87,1,5,1,2.28,87,1,3,103,1,leading/trailing1,1,78,2,3,1,2.74,78,1,2,103,1,IN/OUT1,1,38,3,5,1,1.86,8,0,3,103,1,IN/OUT1,3,78,1,4,1,4.44,78,1,3,103,1,leading/trailing1,1,945,1,6,1,3.17,945,1,3,103,1,IN/OUT1,4,70,2,6,1,5.88,70,1,2,103,1,leading/trailing1,2,69,1,6,1,2.81,69,1,2,103,1,IN/OUT1,2,70,1,6,1,2.06,0,0,2,103,1,IN/OUT1,1,65,1,3,1,2.82,65,1,2,103,1,IN/OUT1,4,20,2,4,1,1.59,20,1,2,103,1,leading/trailing1,3,8,1,5,1,2.26,8,1,2,103,1,leading/trailing1,2,63,1,7,1,4.04,63,1,2,103,1,IN/OUT1,1,767,3,3,1,3.84,767,1,3,103,1,IN/OUT0,2,51,2,1,1,3.43,51,1,2,103,1,IN/OUT0,4,260,3,1,1,3.17,260,1,3,103,1,leading/trailing1,4,50,2,7,1,3.76,50,1,2,103,1,leading/trailing1,1,77,1,4,1,1.73,77,1,2,103,1,IN/OUT0,3,2,1,1,1,3.64,2,1,2,103,1,leading/trailing1,3,1,1,7,1,2.69,1,1,2,103,1,leading/trailing0,1,978,2,2,1,2.33,978,1,3,103,1,IN/OUT1,3,83,1,7,1,2.54,83,1,3,103,1,leading/trailing0,2,167,1,1,1,3.1,167,1,3,103,1,IN/OUT0,2,554,3,1,1,3.38,554,1,3,103,1,IN/OUT1,2,61,2,5,1,2.52,61,1,3,103,1,IN/OUT1,1,87,1,3,1,2.33,87,1,2,103,1,IN/OUT1,3,1,1,7,1,2.15,1,1,2,103,1,leading/trailing0,3,44,1,1,1,2.53,44,1,3,103,1,leading/trailing1,1,40,1,3,1,2.78,40,1,2,103,1,IN/OUT0,3,14,1,1,1,3.16,14,1,3,103,1,leading/trailing0,1,5,2,2,1,1.94,5,1,2,103,1,IN/OUT0,2,48,1,1,1,5.07,48,1,2,103,1,IN/OUT1,1,93,2,5,1,1.9,93,1,2,103,1,IN/OUT1,2,55,1,4,1,2.06,55,1,2,103,1,IN/OUT0,3,72,1,1,1,1.88,72,1,3,103,1,leading/trailing1,4,40,2,5,1,2.86,40,1,2,103,1,leading/trailing1,4,790,3,4,1,2.68,90,0,3,103,1,leading/trailing1,3,4,1,4,1,4.17,4,1,2,103,1,leading/trailing1,4,870,3,7,1,2.03,870,1,3,103,1,leading/trailing1,2,198,1,5,1,2.2,198,1,3,103,1,IN/OUT0,2,729,2,1,1,2.33,729,1,3,103,1,IN/OUT0,3,75,1,1,1,3.28,75,1,3,103,1,leading/trailing1,4,850,3,4,1,2.83,850,1,3,103,1,leading/trailing0,2,37,1,1,1,1.84,37,1,2,103,1,IN/OUT1,3,5,1,4,1,1.86,5,1,2,103,1,leading/trailing1,1,88,2,3,1,1.77,88,1,2,103,1,IN/OUT1,3,66,1,5,1,2.23,66,1,3,103,1,leading/trailing1,1,79,1,3,1,1.56,79,1,2,103,1,IN/OUT1,1,974,1,3,1,3.32,974,1,3,103,1,IN/OUT0,1,35,2,2,1,2.04,35,1,2,103,1,IN/OUT1,4,910,3,6,1,2.8,910,1,3,103,1,leading/trailing1,1,835,2,3,1,2.37,835,1,3,103,1,IN/OUT0,1,347,3,2,1,2.52,347,1,3,103,1,IN/OUT1,3,15,1,6,1,2.17,15,1,3,103,1,leading/trailing1,4,40,2,7,1,2.78,40,1,2,103,1,leading/trailing1,1,863,1,4,1,2.38,863,1,3,103,1,IN/OUT1,3,4,1,7,1,2.53,4,1,2,103,1,leading/trailing1,2,852,3,7,1,3.19,852,1,3,103,1,IN/OUT0,4,670,3,1,1,2.16,70,0,3,103,1,leading/trailing1,2,502,2,6,1,3.32,502,1,3,103,1,IN/OUT1,3,7,1,4,1,2.57,7,1,2,103,1,leading/trailing1,2,24,1,6,1,2.66,24,1,2,103,1,IN/OUT1,2,906,2,7,1,2.41,906,1,3,103,1,IN/OUT1,2,527,3,7,1,5.93,527,1,3,104,1,IN/OUT1,1,63,2,3,1,7.53,63,1,2,104,1,IN/OUT1,2,940,3,6,1,3.31,940,1,3,104,1,IN/OUT0,4,120,3,1,1,4.01,120,1,3,104,1,leading/trailing0,1,60,1,2,1,2.84,60,1,2,104,1,IN/OUT1,2,12,1,5,1,2.25,12,1,2,104,1,IN/OUT1,2,21,2,5,1,6.92,21,1,2,104,1,IN/OUT0,1,944,1,2,1,3.24,944,1,3,104,1,IN/OUT0,3,78,1,1,1,5.98,78,1,3,104,1,leading/trailing1,4,320,3,4,1,5.29,320,1,3,104,1,leading/trailing0,1,55,1,2,1,2.81,55,1,2,104,1,IN/OUT1,2,8,2,7,1,7.91,8,1,2,104,1,IN/OUT0,4,50,2,1,1,21.5,50,1,2,104,2,leading/trailing0,3,18,1,1,1,9.86,18,1,3,104,1,leading/trailing1,2,33,1,7,1,2.83,33,1,2,104,1,IN/OUT1,2,462,2,5,1,4.33,462,1,3,104,1,IN/OUT0,1,774,2,2,1,6.94,774,1,3,104,1,IN/OUT1,3,17,1,7,1,2.8,17,1,3,104,1,leading/trailing1,1,241,2,3,1,3.2,241,1,3,104,1,IN/OUT0,2,726,2,1,1,4.31,726,1,3,104,1,IN/OUT0,2,83,2,1,1,2.65,83,1,2,104,1,IN/OUT1,3,38,1,7,1,3.16,38,1,3,104,1,leading/trailing1,4,90,2,6,1,3.4,90,1,2,104,1,leading/trailing0,3,5,1,1,1,4.07,5,1,2,104,1,leading/trailing0,1,565,1,2,1,7.32,565,1,3,104,1,IN/OUT1,4,20,2,4,1,1.92,20,1,2,104,1,leading/trailing1,2,112,2,6,1,2.57,112,1,3,104,1,IN/OUT1,1,706,1,4,1,3.55,706,1,3,104,1,IN/OUT0,1,219,3,2,1,2.08,219,1,3,104,1,IN/OUT1,3,34,1,7,1,2.45,34,1,3,104,1,leading/trailing1,4,70,2,7,1,1.82,70,1,2,104,1,leading/trailing1,2,47,2,7,1,2.23,47,1,2,104,1,IN/OUT0,1,59,1,2,1,2.38,59,1,2,104,1,IN/OUT1,3,2,1,7,1,2.57,2,1,2,104,1,leading/trailing1,3,83,1,7,1,2.93,83,1,3,104,1,leading/trailing1,1,84,2,4,1,1.61,84,1,2,104,1,IN/OUT1,4,550,3,7,1,2.72,550,1,3,104,1,leading/trailing1,3,64,1,5,1,2.28,64,1,3,104,1,leading/trailing1,4,680,3,7,1,12.5,680,1,3,104,2,leading/trailing1,3,4,1,5,1,2.46,4,1,2,104,1,leading/trailing1,3,6,1,6,1,2.73,6,1,2,104,1,leading/trailing0,4,30,2,1,1,3.5,30,1,2,104,1,leading/trailing1,2,708,2,6,1,3.04,708,1,3,104,1,IN/OUT1,2,97,2,7,1,2.71,97,1,2,104,1,IN/OUT0,2,633,2,1,1,2.9,633,1,3,104,1,IN/OUT0,3,1,1,1,1,3.59,1,1,2,104,1,leading/trailing1,3,65,1,5,1,2.28,65,1,3,104,1,leading/trailing1,3,6,1,7,1,3.39,6,1,2,104,1,leading/trailing1,4,260,3,5,1,2.33,260,1,3,104,1,leading/trailing0,2,25,1,1,1,1.82,25,1,2,104,1,IN/OUT1,4,40,2,5,1,2.04,40,1,2,104,1,leading/trailing1,1,721,1,3,1,1.78,721,1,3,104,1,IN/OUT1,4,40,2,7,1,1.59,40,1,2,104,1,leading/trailing1,2,10,2,5,1,1.96,10,1,2,104,1,IN/OUT1,1,71,1,4,1,3.18,71,1,2,104,1,IN/OUT1,3,41,1,7,1,4.54,41,1,3,104,1,leading/trailing1,3,6,1,4,1,3.01,6,1,2,104,1,leading/trailing0,4,540,3,1,1,3.26,540,1,3,104,1,leading/trailing1,2,188,1,7,1,3.77,188,1,3,104,1,IN/OUT1,1,372,3,3,1,2.29,372,1,3,104,1,IN/OUT1,2,60,1,7,1,2.12,60,1,2,104,1,IN/OUT1,4,30,2,4,1,2.54,30,1,2,104,1,leading/trailing1,3,4,1,6,1,2.73,4,1,2,104,1,leading/trailing1,2,966,2,5,1,2.07,966,1,3,104,1,IN/OUT0,2,661,3,1,1,3.3,661,1,3,104,1,IN/OUT0,2,91,2,1,1,2.69,91,1,2,104,1,IN/OUT1,2,44,1,5,1,2.34,44,1,3,104,1,IN/OUT1,4,10,2,4,1,2.52,10,1,2,104,1,leading/trailing1,4,70,2,5,1,2.39,70,1,2,104,1,leading/trailing1,1,376,2,4,1,3.23,376,1,3,104,1,IN/OUT1,4,360,3,6,1,2.64,360,1,3,104,1,leading/trailing0,3,1,1,1,1,3.23,1,1,2,104,1,leading/trailing1,3,7,1,6,1,2.42,7,1,2,104,1,leading/trailing1,2,234,1,7,1,3.05,234,1,3,104,1,IN/OUT1,1,608,1,3,1,4.35,608,1,3,104,1,IN/OUT1,1,87,1,5,1,2.66,87,1,2,104,1,IN/OUT0,1,54,1,2,1,3.73,54,1,2,104,1,IN/OUT0,2,12,2,1,1,3.52,12,1,2,104,1,IN/OUT1,4,610,3,6,1,2.23,610,1,3,104,1,leading/trailing1,4,480,3,6,1,2.83,480,1,3,104,1,leading/trailing1,1,83,1,5,1,1.78,83,1,2,104,1,IN/OUT1,2,164,2,7,1,3.18,164,1,3,104,1,IN/OUT1,3,1,1,5,1,2.59,1,1,2,104,1,leading/trailing1,1,98,1,3,1,1.96,98,1,2,104,1,IN/OUT0,3,92,1,1,1,3.52,92,1,3,104,1,leading/trailing1,3,53,1,7,1,1.95,53,1,3,104,1,leading/trailing0,4,950,3,1,1,10.2,950,1,3,104,1,leading/trailing1,3,2,1,7,1,5.2,2,1,2,104,1,leading/trailing1,4,20,2,6,1,3.18,20,1,2,104,1,leading/trailing1,3,37,1,4,1,2.86,37,1,3,104,1,leading/trailing1,4,810,3,5,1,4.08,810,1,3,104,1,leading/trailing1,1,788,2,3,1,4.07,788,1,3,104,1,IN/OUT1,4,810,3,6,1,3.02,810,1,3,104,1,leading/trailing0,2,298,1,1,1,3.88,298,1,3,104,1,IN/OUT1,2,496,3,7,1,2.29,496,1,3,104,1,IN/OUT1,1,104,3,4,1,4.88,104,1,3,104,1,IN/OUT0,3,14,1,1,1,2.36,14,1,3,104,1,leading/trailing1,1,20,1,4,1,2.16,20,1,2,104,1,IN/OUT1,3,7,1,5,1,2.69,7,1,2,104,1,leading/trailing1,2,96,2,6,1,3.37,96,1,2,104,1,IN/OUT1,2,53,2,7,1,4.05,53,1,2,104,1,IN/OUT1,2,317,2,7,1,3.54,317,1,3,104,1,IN/OUT1,3,82,1,6,1,2.53,82,1,3,104,1,leading/trailing1,4,230,3,6,1,3.47,230,1,3,104,1,leading/trailing1,1,83,1,4,1,1.41,83,1,2,104,1,IN/OUT1,4,70,2,4,1,1.88,70,1,2,104,1,leading/trailing1,4,60,2,5,1,1.81,60,1,2,104,1,leading/trailing1,1,887,1,4,1,2.09,887,1,3,104,1,IN/OUT1,1,631,2,3,1,2,631,1,3,104,1,IN/OUT1,1,247,1,4,1,1.95,247,1,3,104,1,IN/OUT1,3,75,1,7,1,2.06,75,1,3,104,1,leading/trailing1,3,4,1,7,1,2.26,4,1,2,104,1,leading/trailing1,3,35,1,4,1,2.29,35,1,3,104,1,leading/trailing1,1,45,1,3,1,2.19,45,1,2,104,1,IN/OUT1,4,850,3,7,1,3.95,850,1,3,104,1,leading/trailing1,2,75,2,7,1,1.67,75,1,2,104,1,IN/OUT1,3,2,1,4,1,2.56,2,1,2,104,1,leading/trailing1,1,70,1,3,1,2.94,70,1,2,104,1,IN/OUT1,4,30,2,7,1,1.84,30,1,2,104,1,leading/trailing1,4,640,3,6,1,2.68,640,1,3,104,1,leading/trailing0,4,470,3,1,1,3.64,470,1,3,104,1,leading/trailing0,4,90,2,1,1,2.61,90,1,2,104,1,leading/trailing1,1,61,1,3,1,1.75,61,1,2,104,1,IN/OUT1,2,74,1,7,1,2.81,74,1,2,104,1,IN/OUT1,1,263,3,4,1,2.4,263,1,3,104,1,IN/OUT0,4,70,2,1,1,2.4,70,1,2,104,1,leading/trailing0,3,6,1,1,1,2.09,6,1,2,104,1,leading/trailing1,1,18,2,5,1,2.15,18,1,2,104,1,IN/OUT1,2,14,1,6,1,1.96,19,0,2,105,1,IN/OUT1,3,19,1,7,1,5.05,19,1,3,105,1,leading/trailing1,3,24,1,4,1,5.2,24,1,3,105,1,leading/trailing1,3,83,1,7,1,2.18,83,1,3,105,1,leading/trailing0,1,736,3,2,1,3.06,736,1,3,105,1,IN/OUT1,1,20,1,3,1,2.62,20,1,2,105,1,IN/OUT1,2,34,1,7,1,2.12,34,1,2,105,1,IN/OUT1,4,940,3,7,1,2.42,940,1,3,105,1,leading/trailing1,1,306,3,3,1,3.01,306,1,3,105,1,IN/OUT1,4,70,2,5,1,3.59,70,1,2,105,1,leading/trailing1,4,930,3,5,1,3.21,930,1,3,105,1,leading/trailing1,3,19,1,7,1,5.42,19,1,3,105,1,leading/trailing1,4,20,2,5,1,2.96,20,1,2,105,1,leading/trailing0,2,109,2,1,1,2.83,109,1,3,105,1,IN/OUT1,4,260,3,4,1,3.35,260,1,3,105,1,leading/trailing1,2,43,2,7,1,1.86,43,1,2,105,1,IN/OUT1,4,40,2,7,1,3.34,40,1,2,105,1,leading/trailing0,1,95,2,2,1,2.63,95,1,2,105,1,IN/OUT1,4,510,3,4,1,2.89,510,1,3,105,1,leading/trailing1,3,95,1,5,1,2.2,95,1,3,105,1,leading/trailing1,2,232,3,7,1,3.11,232,1,3,105,1,IN/OUT0,1,54,1,2,1,2.77,54,1,2,105,1,IN/OUT1,2,62,1,7,1,2.54,62,1,2,105,1,IN/OUT0,1,88,2,2,1,1.95,88,1,2,105,1,IN/OUT1,1,131,2,4,1,4.25,131,1,3,105,1,IN/OUT1,1,565,2,3,1,1.97,565,1,3,105,1,IN/OUT0,2,19,1,1,1,2.84,19,1,2,105,1,IN/OUT1,4,20,2,7,1,6.6,20,1,2,105,1,leading/trailing0,3,8,1,1,1,1.52,8,1,2,105,1,leading/trailing1,1,38,1,5,1,2.76,38,1,2,105,1,IN/OUT1,3,7,1,6,1,1.61,7,1,2,105,1,leading/trailing1,1,72,1,3,1,1.63,72,1,2,105,1,IN/OUT0,3,25,1,1,0,1.34,784,0,3,105,1,leading/trailing1,2,93,2,7,1,3.29,93,1,2,105,1,IN/OUT0,4,60,2,1,1,4.75,60,1,2,105,1,leading/trailing0,3,1,1,1,1,1.96,1,1,2,105,1,leading/trailing1,1,79,1,4,1,1.39,79,1,2,105,1,IN/OUT1,2,742,3,7,1,4.36,742,1,3,105,1,IN/OUT1,3,63,1,4,1,1.8,63,1,3,105,1,leading/trailing1,3,8,1,4,1,1.67,8,1,2,105,1,leading/trailing1,2,62,1,6,1,3.59,62,1,3,105,1,IN/OUT1,3,5,1,7,1,5.13,5,1,2,105,1,leading/trailing1,1,310,1,3,1,2.17,310,1,3,105,1,IN/OUT1,4,80,2,6,1,1.31,80,1,2,105,1,leading/trailing0,3,5,1,1,1,1.93,5,1,2,105,1,leading/trailing0,3,1,1,1,1,2.71,1,1,2,105,1,leading/trailing1,1,94,1,6,1,2.17,94,1,2,105,1,IN/OUT1,2,575,1,4,1,2.98,575,1,3,105,1,IN/OUT1,2,545,3,4,1,1.64,545,1,3,105,1,IN/OUT1,3,3,1,4,1,2.58,3,1,2,105,1,leading/trailing0,4,410,3,1,1,2.12,410,1,3,105,1,leading/trailing1,1,44,2,3,1,4.47,44,1,2,105,1,IN/OUT0,2,90,2,1,1,1.74,90,1,2,105,1,IN/OUT1,2,675,3,7,1,1.65,675,1,3,105,1,IN/OUT1,1,601,1,3,1,2.02,601,1,3,105,1,IN/OUT1,4,50,2,5,1,2.14,50,1,2,105,1,leading/trailing1,4,930,3,4,1,1.62,930,1,3,105,1,leading/trailing1,4,760,3,6,1,1.94,760,1,3,105,1,leading/trailing0,2,538,2,1,1,2.5,538,1,3,105,1,IN/OUT1,3,58,1,5,1,1.9,58,1,3,105,1,leading/trailing0,4,80,2,1,1,1.3,80,1,2,105,1,leading/trailing0,3,15,1,1,1,2.13,580,0,3,105,1,leading/trailing1,2,60,1,6,1,2.44,60,1,2,105,1,IN/OUT1,3,9,1,7,1,3.16,9,1,2,105,1,leading/trailing0,2,34,2,1,1,3.25,34,1,2,105,1,IN/OUT0,4,820,3,1,1,2.68,820,1,3,105,1,leading/trailing1,4,90,2,7,1,1.73,90,1,2,105,1,leading/trailing1,1,781,1,3,1,2.14,781,1,3,105,1,IN/OUT1,2,163,3,7,1,2.93,168,0,3,105,1,IN/OUT0,2,42,1,1,1,2.52,42,1,2,105,1,IN/OUT1,2,92,2,7,1,2.07,92,1,2,105,1,IN/OUT0,1,774,2,2,1,1.97,774,1,3,105,1,IN/OUT1,1,773,3,5,1,2.23,773,1,3,105,1,IN/OUT1,3,1,1,5,1,1.86,1,1,2,105,1,leading/trailing1,3,7,1,5,1,3.15,7,1,2,105,1,leading/trailing1,3,55,1,7,1,4.43,55,1,3,105,1,leading/trailing1,4,150,3,5,1,1.78,150,1,3,105,1,leading/trailing1,3,2,1,5,1,2.45,2,1,2,105,1,leading/trailing0,4,540,3,1,1,2.17,40,0,3,105,1,leading/trailing1,2,77,1,6,1,11.6,77,1,2,105,2,IN/OUT1,4,220,3,4,1,1.8,220,1,3,105,1,leading/trailing1,3,5,1,7,1,1.79,5,1,2,105,1,leading/trailing1,4,10,2,4,1,2.6,10,1,2,105,1,leading/trailing0,3,93,1,1,1,3.06,48,0,3,105,1,leading/trailing0,4,60,2,1,1,2.15,60,1,2,105,1,leading/trailing1,1,808,3,3,1,1.88,808,1,3,105,1,IN/OUT1,1,96,2,3,1,1.94,96,1,2,105,1,IN/OUT0,4,340,3,1,1,2.24,340,1,3,105,1,leading/trailing0,2,285,1,1,0,1.91,285,1,3,105,1,IN/OUT1,2,477,2,6,1,3,477,1,3,105,1,IN/OUT1,4,10,2,4,1,1.38,10,1,2,105,1,leading/trailing1,2,354,2,4,1,10.1,354,1,3,105,1,IN/OUT1,1,220,1,3,1,1.5,220,1,3,105,1,IN/OUT1,3,29,1,5,1,1.62,374,0,3,105,1,leading/trailing0,1,66,1,2,1,1.55,66,1,2,105,1,IN/OUT1,4,470,3,6,1,2.19,470,1,3,105,1,leading/trailing1,4,950,3,7,1,2.56,950,1,3,105,1,leading/trailing0,4,80,2,1,1,2.73,80,1,2,105,1,leading/trailing1,1,646,1,3,1,1.1,646,1,3,105,1,IN/OUT0,2,709,2,1,1,4.65,754,0,3,105,1,IN/OUT1,1,36,1,3,1,2.61,36,1,2,105,1,IN/OUT0,3,44,1,1,1,2.69,44,1,3,105,1,leading/trailing1,4,10,2,6,1,3.56,10,1,2,105,1,leading/trailing1,4,480,3,7,1,1.5,480,1,3,105,1,leading/trailing1,3,0,0,0,0,0,0,0,2,105,1,exclude1,2,0,0,0,0,0,0,0,2,105,1,exclude1,1,0,0,0,0,0,0,0,2,105,1,exclude1,3,0,0,0,0,0,0,0,2,105,1,exclude1,2,0,0,0,0,0,0,0,3,105,1,exclude1,3,0,0,0,0,0,0,0,3,105,1,exclude1,4,0,0,0,0,0,0,0,2,105,1,exclude0,1,0,0,0,0,0,0,0,3,105,1,exclude1,1,0,0,0,0,0,0,0,2,105,1,exclude1,1,0,0,0,0,0,0,0,3,105,1,exclude1,3,0,0,0,0,0,0,0,3,105,1,exclude1,1,0,0,0,0,0,0,0,2,105,1,exclude1,3,0,0,0,0,0,0,0,3,105,1,exclude0,1,0,0,0,0,0,0,0,3,105,1,exclude1,2,0,0,0,0,0,0,0,2,105,1,exclude1,2,0,0,0,0,0,0,0,3,105,1,exclude1,1,0,0,0,0,0,0,0,3,105,1,exclude1,2,0,0,0,0,0,0,0,2,105,1,exclude1,2,0,0,0,0,0,0,0,3,105,1,exclude1,4,0,0,0,0,0,0,0,3,105,1,exclude1,1,0,0,0,0,0,0,0,2,105,1,exclude1,2,0,0,0,0,0,0,0,2,105,1,exclude1,4,0,0,0,0,0,0,0,2,105,1,exclude1,3,0,0,0,0,0,0,0,2,105,1,exclude1,3,1,1,7,1,2.19,1,1,2,106,1,leading/trailing1,2,471,3,5,1,4.38,471,1,3,106,1,IN/OUT1,1,615,1,3,1,3.9,615,1,3,106,1,IN/OUT0,3,33,1,1,1,6.06,33,1,3,106,1,leading/trailing1,3,15,1,7,1,2.36,15,1,3,106,1,leading/trailing0,4,80,2,1,1,4.16,80,1,2,106,1,leading/trailing1,2,200,2,4,1,3.85,200,1,3,106,1,IN/OUT1,1,474,1,5,1,4.07,474,1,3,106,1,IN/OUT0,4,20,2,1,1,3.34,0,0,2,106,1,leading/trailing0,1,16,2,2,1,2.46,6,0,2,106,1,IN/OUT1,3,6,1,7,1,5.53,6,1,2,106,1,leading/trailing1,1,632,3,4,1,3.61,632,1,3,106,1,IN/OUT1,1,49,2,6,1,4.01,49,1,2,106,1,IN/OUT1,4,30,2,7,1,2.21,30,1,2,106,1,leading/trailing1,2,34,1,7,1,2.75,34,1,2,106,1,IN/OUT1,1,42,1,6,1,2.84,42,1,2,106,1,IN/OUT1,2,120,3,6,1,4.42,0,0,3,106,1,IN/OUT0,3,9,1,1,1,3.91,9,1,2,106,1,leading/trailing0,2,14,2,1,1,3.73,14,1,2,106,1,IN/OUT1,3,3,1,6,1,3.09,3,1,2,106,1,leading/trailing1,1,215,2,3,1,4.19,215,1,3,106,1,IN/OUT1,2,8,1,4,1,3.03,8,1,2,106,1,IN/OUT1,3,5,1,7,1,3.06,5,1,2,106,1,leading/trailing1,2,825,2,6,1,3.88,25,0,3,106,1,IN/OUT1,2,872,3,7,1,4.35,872,1,3,106,1,IN/OUT0,1,347,3,2,1,3.14,347,1,3,106,1,IN/OUT1,1,184,3,3,1,2.73,184,1,3,106,1,IN/OUT0,3,68,1,1,1,6.44,68,1,3,106,1,leading/trailing1,3,82,1,6,1,3.29,82,1,3,106,1,leading/trailing1,1,52,2,4,1,2.42,52,1,2,106,1,IN/OUT1,2,850,1,7,1,3.34,850,1,3,106,1,IN/OUT0,1,36,2,2,1,2.35,36,1,2,106,1,IN/OUT1,4,20,2,7,1,1.51,20,1,2,106,1,leading/trailing0,3,2,1,1,1,4.23,2,1,2,106,1,leading/trailing0,2,186,1,1,1,3.85,186,1,3,106,1,IN/OUT1,4,40,2,4,1,4.1,40,1,2,106,1,leading/trailing1,1,480,1,6,1,3.44,480,1,3,106,1,IN/OUT0,4,10,2,1,0,1.98,10,1,2,106,1,leading/trailing1,1,62,2,4,1,2.2,62,1,2,106,1,IN/OUT1,1,77,2,4,1,2,77,1,2,106,1,IN/OUT1,3,6,1,6,1,3.08,6,1,2,106,1,leading/trailing1,4,90,2,7,1,1.99,90,1,2,106,1,leading/trailing1,4,30,2,4,1,1.98,30,1,2,106,1,leading/trailing0,1,18,2,2,1,3,18,1,2,106,1,IN/OUT1,4,550,3,5,1,5.49,50,0,3,106,1,leading/trailing0,3,96,1,1,1,3.75,96,1,3,106,1,leading/trailing1,3,6,1,7,1,5.38,6,1,2,106,1,leading/trailing1,4,60,2,6,1,3.34,60,1,2,106,1,leading/trailing1,2,76,2,7,1,4.94,76,1,2,106,1,IN/OUT1,1,779,3,4,1,5.88,774,0,3,106,1,IN/OUT1,2,393,1,7,1,5.78,393,1,3,106,1,IN/OUT1,4,460,3,5,1,2.54,460,1,3,106,1,leading/trailing0,3,72,1,1,1,4.59,72,1,3,106,1,leading/trailing1,2,14,1,7,1,3.51,14,1,2,106,1,IN/OUT0,2,259,1,1,1,5.01,257,0,3,106,1,IN/OUT1,4,20,2,5,1,3.01,20,1,2,106,1,leading/trailing1,3,95,1,4,1,2.4,95,1,3,106,1,leading/trailing1,3,4,1,7,1,4.91,4,1,2,106,1,leading/trailing1,3,38,1,6,1,3.16,38,1,3,106,1,leading/trailing0,4,660,3,1,1,4.7,660,1,3,106,1,leading/trailing0,3,9,1,1,1,2.83,9,1,2,106,1,leading/trailing1,2,95,2,7,1,2.72,95,1,2,106,1,IN/OUT1,1,62,2,4,1,3.23,62,1,2,106,1,IN/OUT0,2,72,2,1,1,3.55,72,1,2,106,1,IN/OUT1,1,700,1,3,1,2.21,700,1,3,106,1,IN/OUT1,4,60,2,5,1,3.55,60,1,2,106,1,leading/trailing1,3,1,1,4,1,2.68,1,1,2,106,1,leading/trailing1,2,35,2,5,0,2.37,35,1,2,106,1,IN/OUT0,1,84,1,2,1,3.28,84,1,2,106,1,IN/OUT1,1,35,1,5,1,3.04,85,0,2,106,1,IN/OUT1,2,51,1,7,1,4,51,1,2,106,1,IN/OUT0,1,386,2,2,1,3.59,386,1,3,106,1,IN/OUT1,3,2,1,7,1,2.8,2,1,2,106,1,leading/trailing1,3,45,1,6,1,2.61,45,1,3,106,1,leading/trailing0,2,37,1,1,1,3.65,37,1,2,106,1,IN/OUT1,2,47,2,6,1,2.05,47,1,2,106,1,IN/OUT1,3,69,1,4,1,2.85,69,1,3,106,1,leading/trailing1,2,20,1,6,1,3.54,20,1,2,106,1,IN/OUT1,2,12,2,6,1,3.05,2,0,2,106,1,IN/OUT0,1,189,3,2,1,2.45,189,1,3,106,1,IN/OUT1,4,560,3,5,1,2.4,560,1,3,106,1,leading/trailing0,4,830,3,1,1,3.64,830,1,3,106,1,leading/trailing1,4,60,2,6,1,1.85,60,1,2,106,1,leading/trailing1,1,13,2,5,1,1.66,13,1,2,106,1,IN/OUT1,2,63,1,5,1,2.96,63,1,2,106,1,IN/OUT0,4,70,2,1,1,4.08,70,1,2,106,1,leading/trailing1,4,290,3,7,1,4.14,290,1,3,106,1,leading/trailing1,2,992,3,6,1,1.96,992,1,3,106,1,IN/OUT1,3,27,1,4,1,2.19,27,1,3,106,1,leading/trailing1,4,40,2,5,1,1.99,40,1,2,106,1,leading/trailing1,2,416,3,7,1,2.78,417,0,3,106,1,IN/OUT0,1,317,3,2,1,1.93,317,1,3,106,1,IN/OUT0,4,250,3,1,1,2.38,250,1,3,106,1,leading/trailing1,2,305,2,7,1,2.97,305,1,3,106,1,IN/OUT1,4,510,3,5,1,2.13,510,1,3,106,1,leading/trailing1,1,22,1,3,1,2.4,22,1,2,106,1,IN/OUT1,3,85,1,6,1,1.88,85,1,3,106,1,leading/trailing1,4,80,2,6,1,2.53,80,1,2,106,1,leading/trailing1,4,880,3,5,1,3.74,880,1,3,106,1,leading/trailing1,4,280,3,5,1,2.31,280,1,3,106,1,leading/trailing1,2,653,2,6,1,3.01,653,1,3,106,1,IN/OUT0,3,4,1,1,1,5.6,4,1,2,106,1,leading/trailing1,1,59,2,6,1,4.51,59,1,2,106,1,IN/OUT1,3,44,1,4,1,2.03,44,1,3,106,1,leading/trailing1,3,3,1,6,1,3.19,3,1,2,106,1,leading/trailing1,1,223,3,5,1,2.28,223,1,3,106,1,IN/OUT1,1,52,3,3,1,2.55,52,1,3,106,1,IN/OUT1,3,2,1,4,1,2.18,2,1,2,106,1,leading/trailing0,4,920,3,1,1,2.68,920,1,3,106,1,leading/trailing1,4,330,3,4,1,1.72,330,1,3,106,1,leading/trailing1,1,869,1,3,1,2.54,869,1,3,106,1,IN/OUT1,2,142,1,6,1,2.68,42,0,3,106,1,IN/OUT1,1,9,2,3,1,2.72,9,1,2,106,1,IN/OUT0,2,2,2,1,1,1.35,2,1,2,106,1,IN/OUT1,4,110,3,4,1,1.98,110,1,3,106,1,leading/trailing0,2,980,3,1,1,2.36,980,1,3,106,1,IN/OUT1,2,35,2,5,1,2.39,35,1,2,106,1,IN/OUT1,3,18,1,4,1,2.82,18,1,3,106,1,leading/trailing1,1,999,3,4,1,2.76,999,1,3,106,1,IN/OUT1,3,7,1,4,1,3.14,7,1,2,106,1,leading/trailing1,1,85,1,4,1,2.23,5,0,2,106,1,IN/OUT1,4,10,2,4,1,2.68,10,1,2,106,1,leading/trailing1,3,13,1,5,1,2.18,13,1,3,106,1,leading/trailing0,2,429,1,1,1,4.48,429,1,3,106,1,IN/OUT1,4,110,3,7,1,2.26,110,1,3,106,1,leading/trailing1,4,910,3,5,1,2.85,910,1,3,106,1,leading/trailing1,3,55,1,6,1,11.2,55,1,3,106,2,leading/trailing1,4,820,3,4,1,6.13,820,1,3,106,1,leading/trailing1,3,1,1,5,1,6.62,1,1,2,107,1,leading/trailing0,3,8,1,1,1,5.87,8,1,2,107,1,leading/trailing1,2,10,2,5,1,3.32,10,1,2,107,1,IN/OUT0,1,682,1,2,1,4.59,682,1,3,107,1,IN/OUT1,3,29,1,6,1,4.78,29,1,3,107,1,leading/trailing0,2,156,1,1,1,3.12,156,1,3,107,1,IN/OUT1,3,73,1,7,1,7.2,73,1,3,107,1,leading/trailing1,1,155,1,3,1,3.26,155,1,3,107,1,IN/OUT1,4,20,2,4,1,3.4,20,1,2,107,1,leading/trailing1,1,48,3,3,1,2.38,48,1,3,107,1,IN/OUT1,1,451,1,4,1,4.14,451,1,3,107,1,IN/OUT1,2,985,2,7,1,6.39,985,1,3,107,1,IN/OUT1,1,546,2,5,1,3.14,546,1,3,107,1,IN/OUT1,2,53,2,5,1,4.67,53,1,3,107,1,IN/OUT1,1,68,1,3,1,2.36,68,1,2,107,1,IN/OUT1,4,30,2,4,1,3.52,30,1,2,107,1,leading/trailing1,4,160,3,5,1,2.87,160,1,3,107,1,leading/trailing0,3,78,1,1,1,5.82,78,1,3,107,1,leading/trailing0,1,386,3,2,1,5.75,386,1,3,107,1,IN/OUT0,2,93,2,1,1,6.51,93,1,2,107,1,IN/OUT1,2,665,2,5,1,3.44,665,1,3,107,1,IN/OUT1,1,28,1,3,1,2.92,28,1,2,107,1,IN/OUT1,1,40,1,4,1,2.66,40,1,2,107,1,IN/OUT0,3,7,1,1,1,4.58,7,1,2,107,1,leading/trailing1,2,98,2,7,1,5.09,98,1,2,107,1,IN/OUT1,2,12,1,6,1,4.66,12,1,2,107,1,IN/OUT1,2,361,2,6,1,3.97,361,1,3,107,1,IN/OUT1,4,110,3,5,1,3.91,110,1,3,107,1,leading/trailing1,2,55,1,5,1,3.79,55,1,2,107,1,IN/OUT1,1,79,2,4,1,2.91,79,1,2,107,1,IN/OUT1,1,52,2,4,1,3.12,52,1,2,107,1,IN/OUT0,1,747,3,2,1,5.65,747,1,3,107,1,IN/OUT0,2,1,3,1,1,4.21,1,1,3,107,1,IN/OUT1,3,3,1,7,1,3.69,3,1,2,107,1,leading/trailing0,2,88,1,1,1,5.18,88,1,3,107,1,IN/OUT0,1,75,2,2,1,3.89,75,1,2,107,1,IN/OUT0,2,927,2,1,1,4.88,927,1,3,107,1,IN/OUT0,4,80,2,1,1,4.58,80,1,2,107,1,leading/trailing0,2,43,1,1,1,4.43,43,1,2,107,1,IN/OUT1,4,570,3,5,1,2.72,570,1,3,107,1,leading/trailing1,2,13,1,5,1,3.37,13,1,2,107,1,IN/OUT1,4,120,3,6,1,3.4,120,1,3,107,1,leading/trailing1,4,70,2,6,1,3.1,70,1,2,107,1,leading/trailing1,3,19,1,5,1,6.01,19,1,3,107,1,leading/trailing1,2,54,1,5,1,3.09,54,1,2,107,1,IN/OUT1,3,55,1,6,1,4.5,55,1,3,107,1,leading/trailing1,3,94,1,6,1,5.63,94,1,3,107,1,leading/trailing1,4,50,2,4,1,2.51,50,1,2,107,1,leading/trailing1,2,13,1,5,1,4.55,13,1,2,107,1,IN/OUT1,4,30,2,4,1,4.42,0,0,2,107,1,leading/trailing0,1,36,2,2,1,4.3,36,1,2,107,1,IN/OUT1,3,3,1,7,1,5.74,3,1,2,107,1,leading/trailing1,4,680,3,4,1,3.34,680,1,3,107,1,leading/trailing1,4,830,3,4,1,4.39,830,1,3,107,1,leading/trailing1,3,1,1,5,1,3.75,1,1,2,107,1,leading/trailing0,4,690,3,1,1,3.52,690,1,3,107,1,leading/trailing1,1,263,3,3,1,2.99,263,1,3,107,1,IN/OUT0,1,764,1,2,1,5.31,764,1,3,107,1,IN/OUT1,4,90,2,6,1,4.92,90,1,2,107,1,leading/trailing1,4,30,2,7,1,3.44,30,1,2,107,1,leading/trailing1,1,627,1,3,1,2.64,627,1,3,107,1,IN/OUT1,4,20,2,5,1,2.1,20,1,2,107,1,leading/trailing1,2,105,3,7,1,2.72,105,1,3,107,1,IN/OUT1,2,30,2,4,1,2.19,30,1,2,107,1,IN/OUT1,3,29,1,6,1,5.31,29,1,3,107,1,leading/trailing1,4,90,2,7,1,3.25,90,1,2,107,1,leading/trailing1,3,1,1,5,1,7.29,1,1,2,107,1,leading/trailing0,2,24,2,1,1,4.2,24,1,2,107,1,IN/OUT1,3,22,1,6,1,6.94,22,1,3,107,1,leading/trailing1,1,991,2,4,1,2.65,991,1,3,107,1,IN/OUT1,4,440,3,6,1,4.28,440,1,3,107,1,leading/trailing1,2,9,1,4,1,7.3,9,1,2,107,1,IN/OUT1,4,350,3,6,1,4.17,350,1,3,107,1,leading/trailing0,4,50,2,1,1,3.49,50,1,2,107,1,leading/trailing1,3,77,1,6,1,4.06,77,1,3,107,1,leading/trailing1,1,65,1,3,1,3.31,65,1,2,107,1,IN/OUT1,4,510,3,6,1,3.09,510,1,3,107,1,leading/trailing1,1,88,2,5,1,2.03,88,1,2,107,1,IN/OUT0,1,15,2,2,1,3.28,15,1,2,107,1,IN/OUT1,3,21,1,4,1,3.01,21,1,3,107,1,leading/trailing0,4,40,2,1,1,2.36,40,1,2,107,1,leading/trailing1,2,6,1,7,1,4.77,6,1,2,107,1,IN/OUT1,3,18,1,4,1,3.97,18,1,3,107,1,leading/trailing1,2,984,2,7,1,9.54,984,1,3,107,1,IN/OUT1,1,16,2,3,1,1.99,16,1,2,107,1,IN/OUT1,1,24,2,3,1,2.59,24,1,2,107,1,IN/OUT0,3,2,1,1,1,3.26,2,1,2,107,1,leading/trailing0,2,72,2,1,1,3.38,72,1,2,107,1,IN/OUT1,3,23,1,6,1,3.63,23,1,3,107,1,leading/trailing1,3,46,1,5,1,3.56,46,1,3,107,1,leading/trailing1,1,47,1,5,1,3.52,47,1,2,107,1,IN/OUT0,4,320,3,1,1,2.69,320,1,3,107,1,leading/trailing1,2,93,1,6,1,3.14,93,1,3,107,1,IN/OUT0,4,10,2,1,1,3.25,10,1,2,107,1,leading/trailing1,3,1,1,6,1,3,1,1,2,107,1,leading/trailing1,2,821,2,6,1,4.11,821,1,3,107,1,IN/OUT1,1,140,1,3,1,4.89,140,1,3,107,1,IN/OUT1,3,6,1,4,1,2.08,6,1,2,107,1,leading/trailing1,1,62,2,4,1,1.97,62,1,2,107,1,IN/OUT1,4,570,3,5,1,2.32,570,1,3,107,1,leading/trailing1,4,650,3,6,1,4.13,650,1,3,107,1,leading/trailing1,1,1,3,3,1,2.79,1,1,3,107,1,IN/OUT1,3,9,1,7,1,4.11,9,1,2,107,1,leading/trailing1,2,787,1,7,1,9.21,787,1,3,107,1,IN/OUT1,2,89,1,7,1,4.21,89,1,2,107,1,IN/OUT1,2,53,2,7,1,3.42,53,1,2,107,1,IN/OUT1,1,415,1,3,1,2.87,415,1,3,107,1,IN/OUT1,2,435,3,7,1,3.55,435,1,3,107,1,IN/OUT1,1,871,3,3,1,3.05,871,1,3,107,1,IN/OUT0,1,59,2,2,1,4.63,59,1,2,107,1,IN/OUT1,1,56,3,3,1,3,56,1,3,107,1,IN/OUT1,3,5,1,7,1,2.93,5,1,2,107,1,leading/trailing1,2,781,1,7,1,7.61,781,1,3,107,1,IN/OUT0,4,470,3,1,1,4.21,470,1,3,107,1,leading/trailing1,3,2,1,6,1,2.45,2,1,2,107,1,leading/trailing1,4,130,3,5,1,5.36,130,1,3,107,1,leading/trailing0,3,5,1,1,1,3.88,5,1,2,107,1,leading/trailing0,3,89,1,1,1,4.45,89,1,3,107,1,leading/trailing1,4,80,2,4,1,2.16,80,1,2,107,1,leading/trailing0,3,15,1,1,1,3.92,15,1,3,107,1,leading/trailing0,3,49,1,1,1,4.61,49,1,3,107,1,leading/trailing1,2,165,1,6,1,3.71,165,1,3,107,1,IN/OUT1,3,5,1,6,1,3.05,5,1,2,107,1,leading/trailing1,3,3,1,5,1,2.3,3,1,2,107,1,leading/trailing0,4,660,3,1,1,2.23,660,1,3,107,1,leading/trailing1,4,90,2,4,1,1.68,90,1,2,107,1,leading/trailing1,1,36,1,5,1,2.68,36,1,2,107,1,IN/OUT1,4,40,2,6,1,2.43,40,1,2,107,1,leading/trailing1,2,186,1,6,1,3.58,186,1,3,108,1,IN/OUT1,4,20,2,5,1,2.46,20,1,2,108,1,leading/trailing0,2,24,2,1,1,2.97,24,1,2,108,1,IN/OUT1,4,480,3,5,1,2.82,480,1,3,108,1,leading/trailing1,2,7,1,6,1,2.69,8,0,2,108,1,IN/OUT1,4,40,2,7,1,3.87,40,1,2,108,1,leading/trailing1,2,76,1,7,1,2.55,76,1,2,108,1,IN/OUT1,4,20,2,4,1,2.14,20,1,2,108,1,leading/trailing1,4,330,3,6,1,1.97,330,1,3,108,1,leading/trailing0,4,60,2,1,1,2.95,60,1,2,108,1,leading/trailing0,1,891,1,2,1,4.88,891,1,3,108,1,IN/OUT0,1,66,1,2,1,2.05,45,0,2,108,1,IN/OUT1,2,66,2,6,1,4.03,66,1,2,108,1,IN/OUT0,1,297,3,2,1,3.88,297,1,3,108,1,IN/OUT1,2,188,1,6,1,2.96,188,1,3,108,1,IN/OUT1,3,9,1,4,1,3.34,9,1,2,108,1,leading/trailing1,2,905,3,7,1,4.17,905,1,3,108,1,IN/OUT1,1,61,1,3,1,2.12,61,1,2,108,1,IN/OUT0,1,86,1,2,1,3.23,86,1,2,108,1,IN/OUT1,2,106,2,5,1,3.65,106,1,3,108,1,IN/OUT1,3,9,1,4,1,2.68,9,1,2,108,1,leading/trailing1,1,79,2,6,1,3.11,79,1,2,108,1,IN/OUT1,2,482,3,6,1,4.22,482,1,3,108,1,IN/OUT0,3,9,1,1,1,4.16,9,1,2,108,1,leading/trailing0,3,54,1,1,1,3.86,54,1,3,108,1,leading/trailing0,3,2,1,1,1,2.88,2,1,2,108,1,leading/trailing1,4,790,3,4,1,4.93,790,1,3,108,1,leading/trailing1,4,50,2,7,1,3.01,50,1,2,108,1,leading/trailing0,4,540,3,1,1,3.97,540,1,3,108,1,leading/trailing1,3,5,1,5,1,3.06,5,1,2,108,1,leading/trailing1,4,810,3,7,1,4.29,810,1,3,108,1,leading/trailing0,1,86,1,2,1,1.86,86,1,2,108,1,IN/OUT1,4,10,2,4,1,1.89,10,1,2,108,1,leading/trailing1,1,677,3,4,1,2.54,677,1,3,108,1,IN/OUT0,3,57,1,1,1,3.23,57,1,3,108,1,leading/trailing1,3,26,1,5,1,2.15,26,1,3,108,1,leading/trailing0,4,110,3,1,1,4.22,110,1,3,108,1,leading/trailing0,2,48,1,1,1,2.23,48,1,2,108,1,IN/OUT1,4,60,2,6,1,1.66,60,1,2,108,1,leading/trailing1,1,955,1,3,1,3.09,955,1,3,108,1,IN/OUT0,3,95,1,1,1,4,95,1,3,108,1,leading/trailing1,2,677,3,7,1,3.99,677,1,3,108,1,IN/OUT1,1,247,2,4,1,2.22,247,1,3,108,1,IN/OUT0,3,86,1,1,1,4.05,86,1,3,108,1,leading/trailing1,4,30,2,4,1,1.92,30,1,2,108,1,leading/trailing0,4,90,2,1,1,2.48,90,1,2,108,1,leading/trailing1,1,30,1,4,1,3.33,30,1,2,108,1,IN/OUT1,2,20,1,6,1,1.54,20,1,2,108,1,IN/OUT1,3,88,1,7,1,2.42,88,1,3,108,1,leading/trailing0,4,520,3,1,1,1.79,520,1,3,108,1,leading/trailing0,3,7,1,1,1,3.29,7,1,2,108,1,leading/trailing1,1,719,3,6,1,2.48,719,1,3,108,1,IN/OUT1,2,90,2,7,1,2.08,90,1,2,108,1,IN/OUT1,1,49,2,4,1,2.65,49,1,2,108,1,IN/OUT1,1,621,2,3,1,1.85,621,1,3,108,1,IN/OUT1,4,340,3,6,1,2.73,340,1,3,108,1,leading/trailing1,2,5,2,4,1,3.88,5,1,2,108,1,IN/OUT1,2,12,2,7,1,2.26,12,1,2,108,1,IN/OUT1,1,685,2,4,1,4.35,685,1,3,108,1,IN/OUT1,2,98,2,7,1,2.29,98,1,2,108,1,IN/OUT0,3,2,1,1,1,3.05,2,1,2,108,1,leading/trailing1,3,28,1,4,1,2.57,28,1,3,108,1,leading/trailing0,2,72,2,1,1,1.84,72,1,2,108,1,IN/OUT1,3,19,1,7,1,2.06,19,1,3,108,1,leading/trailing1,4,410,3,7,1,2.26,410,1,3,108,1,leading/trailing1,3,56,1,5,1,3.27,56,1,3,108,1,leading/trailing1,3,1,1,4,0,3.65,1,1,2,108,1,leading/trailing0,1,574,1,2,1,5.33,574,1,3,108,1,IN/OUT1,1,42,1,3,1,2.1,42,1,2,108,1,IN/OUT1,1,189,2,3,1,1.73,189,1,3,108,1,IN/OUT1,4,10,2,6,1,2.06,10,1,2,108,1,leading/trailing0,4,310,3,1,1,5.08,310,1,3,108,1,leading/trailing1,3,7,1,6,1,4.34,7,1,2,108,1,leading/trailing1,2,118,1,5,1,3.07,118,1,3,108,1,IN/OUT1,1,701,3,3,1,3.38,701,1,3,108,1,IN/OUT1,3,3,1,5,1,3.84,3,1,2,108,1,leading/trailing0,2,34,1,1,1,2.88,34,1,2,108,1,IN/OUT1,1,79,1,3,1,2.23,9,0,2,108,1,IN/OUT1,2,512,2,5,1,4.22,512,1,3,108,1,IN/OUT1,2,78,1,6,1,3.35,78,1,2,108,1,IN/OUT0,1,78,1,2,1,2.96,78,1,2,108,1,IN/OUT1,3,39,1,4,1,2.25,39,1,3,108,1,leading/trailing1,3,92,1,6,1,1.91,92,1,3,108,1,leading/trailing1,3,6,1,7,1,3.09,6,1,2,108,1,leading/trailing1,2,12,1,7,1,2.75,12,1,2,108,1,IN/OUT0,1,660,1,2,1,2.42,660,1,3,108,1,IN/OUT1,1,42,1,5,1,1.73,42,1,2,108,1,IN/OUT1,3,8,1,7,1,4.56,8,1,2,108,1,leading/trailing1,1,8,2,5,1,2.32,8,1,2,108,1,IN/OUT1,1,82,1,3,1,2.07,82,1,2,108,1,IN/OUT1,4,10,2,7,1,6.04,10,1,2,108,1,leading/trailing1,2,25,2,7,1,1.75,25,1,2,108,1,IN/OUT1,3,1,1,4,1,1.71,1,1,2,108,1,leading/trailing0,2,834,2,1,1,2.7,834,1,3,108,1,IN/OUT1,2,781,3,5,1,2.39,781,1,3,108,1,IN/OUT1,3,41,1,4,1,3.47,41,1,3,108,1,leading/trailing1,3,93,1,6,1,2.63,93,1,3,108,1,leading/trailing1,3,2,1,7,1,1.82,2,1,2,108,1,leading/trailing1,2,575,1,7,1,3.24,575,1,3,108,1,IN/OUT0,2,166,1,1,1,6.76,166,1,3,108,1,IN/OUT1,3,98,1,7,1,3.4,98,1,3,108,1,leading/trailing1,3,44,1,4,1,2,44,1,3,108,1,leading/trailing1,2,66,1,5,1,2.02,66,1,2,108,1,IN/OUT1,1,2,3,3,1,1.62,2,1,3,108,1,IN/OUT0,4,60,2,1,1,2.25,60,1,2,108,1,leading/trailing1,4,210,3,5,1,2.07,210,1,3,108,1,leading/trailing1,1,42,2,3,1,1.82,42,1,2,108,1,IN/OUT1,4,790,3,4,1,2.28,790,1,3,108,1,leading/trailing1,4,40,2,6,0,4.7,40,1,2,108,1,leading/trailing1,1,51,2,3,1,1.6,51,1,2,108,1,IN/OUT1,4,40,2,5,1,1.94,40,1,2,108,1,leading/trailing0,4,80,2,1,1,2.49,80,1,2,108,1,leading/trailing1,1,54,2,6,1,2.02,54,1,2,108,1,IN/OUT1,4,960,3,7,1,1.72,960,1,3,108,1,leading/trailing1,2,438,3,7,1,5.5,438,1,3,108,1,IN/OUT1,3,8,1,5,1,3.7,8,1,2,108,1,leading/trailing1,4,330,3,7,1,1.81,330,1,3,108,1,leading/trailing1,3,8,1,6,1,1.86,8,1,2,108,1,leading/trailing1,1,459,3,6,1,2.47,459,1,3,108,1,IN/OUT1,4,10,2,4,1,1.64,10,1,2,108,1,leading/trailing0,2,200,3,1,1,1.97,200,1,3,108,1,IN/OUT1,2,990,3,4,1,2.09,990,1,3,108,1,IN/OUT1,1,914,1,3,1,4.17,914,1,3,108,1,IN/OUT1,4,880,3,5,1,2.43,880,1,3,108,1,leading/trailing1,3,72,1,4,1,1.75,72,1,3,108,1,leading/trailing1,1,808,3,5,1,1.67,808,1,3,108,1,IN/OUT1,4,820,3,4,1,2.48,820,1,3,108,1,leading/trailing0,2,7,2,1,1,1.82,7,1,3,108,1,IN/OUT0,1,292,2,2,1,7.13,292,1,3,109,1,IN/OUT0,4,30,2,1,1,7.8,30,1,2,109,1,leading/trailing1,1,12,2,3,1,2.91,12,1,2,109,1,IN/OUT1,4,20,2,4,1,3.84,20,1,2,109,1,leading/trailing1,2,10,2,4,1,2.93,10,1,2,109,1,IN/OUT0,3,7,1,1,1,6.37,7,1,2,109,1,leading/trailing1,1,696,2,6,1,6.09,696,1,3,109,1,IN/OUT1,4,50,2,6,1,2.96,50,1,2,109,1,leading/trailing1,1,943,2,4,1,10.8,943,1,3,109,1,IN/OUT1,2,508,2,5,1,3.88,508,1,3,109,1,IN/OUT1,3,6,1,5,1,4.11,6,1,2,109,1,leading/trailing1,3,2,1,7,1,4.11,2,1,2,109,1,leading/trailing0,1,944,1,2,1,4.41,944,1,3,109,1,IN/OUT1,1,94,2,3,1,6.13,94,1,2,109,1,IN/OUT1,2,6,2,7,1,3.2,6,1,2,109,1,IN/OUT0,3,9,1,1,1,4.86,9,1,2,109,1,leading/trailing1,3,73,1,6,1,7.79,73,1,3,109,1,leading/trailing1,1,78,2,5,1,3.45,78,1,2,109,1,IN/OUT1,2,13,1,5,1,10.2,13,1,2,109,1,IN/OUT1,4,340,3,6,1,3.9,40,0,3,109,1,leading/trailing1,2,20,2,7,1,5.36,20,1,2,109,1,IN/OUT1,4,80,2,6,1,5.7,80,1,2,109,1,leading/trailing1,2,790,3,7,1,3.96,790,1,3,109,1,IN/OUT1,1,364,3,5,1,4.08,364,1,3,109,1,IN/OUT1,3,3,1,7,1,3.47,3,1,2,109,1,leading/trailing1,1,58,2,5,1,2.82,8,0,2,109,1,IN/OUT0,1,66,2,2,1,7.48,66,1,2,109,1,IN/OUT1,1,771,3,3,1,5.18,771,1,3,109,1,IN/OUT1,1,907,1,3,1,8.73,907,1,3,109,1,IN/OUT1,1,486,2,5,1,4.69,486,1,3,109,1,IN/OUT1,3,3,1,4,1,3.46,3,1,2,109,1,leading/trailing1,2,963,2,5,1,5.16,963,1,3,109,1,IN/OUT0,3,17,1,1,1,8.85,17,1,3,109,1,leading/trailing1,2,187,3,7,1,6.78,187,1,3,109,1,IN/OUT1,4,60,2,7,1,5.35,60,1,2,109,1,leading/trailing0,3,94,1,1,1,6.07,94,1,3,109,1,leading/trailing0,1,907,3,2,1,5.56,907,1,3,109,1,IN/OUT0,4,860,3,1,1,3.38,860,1,3,109,1,leading/trailing1,2,17,3,6,1,3.45,17,1,3,109,1,IN/OUT1,2,96,2,6,1,2.31,96,1,2,109,1,IN/OUT1,1,97,2,3,1,3.63,97,1,2,109,1,IN/OUT0,4,880,3,1,1,6.7,880,1,3,109,1,leading/trailing0,4,20,2,1,1,4.53,20,1,2,109,1,leading/trailing1,4,480,3,7,1,4.5,480,1,3,109,1,leading/trailing1,2,71,1,6,1,3.53,71,1,2,109,1,IN/OUT1,4,860,3,6,1,4.25,860,1,3,109,1,leading/trailing0,1,77,2,2,1,2.83,77,1,2,109,1,IN/OUT0,2,369,1,1,1,5.23,369,1,3,109,1,IN/OUT0,4,60,2,1,1,6.27,60,1,2,109,1,leading/trailing1,3,5,1,5,1,3.49,5,1,2,109,1,leading/trailing1,1,34,2,3,1,2.61,34,1,2,109,1,IN/OUT1,1,76,1,3,1,2.1,76,1,2,109,1,IN/OUT1,1,96,1,6,1,2.36,96,1,2,109,1,IN/OUT1,2,10,2,7,1,2.87,10,1,2,109,1,IN/OUT0,2,472,1,1,1,5.08,472,1,3,109,1,IN/OUT1,4,930,3,7,1,8.43,930,1,3,109,1,leading/trailing1,4,70,2,6,1,2.93,70,1,2,109,1,leading/trailing1,3,57,1,5,1,3.06,57,1,3,109,1,leading/trailing1,1,40,2,5,1,3.24,0,0,3,109,1,IN/OUT1,4,760,3,5,1,6.67,760,1,3,109,1,leading/trailing0,2,82,2,1,1,4.37,82,1,2,109,1,IN/OUT0,1,19,2,2,1,4.42,19,1,2,109,1,IN/OUT1,2,567,1,7,1,3.35,567,1,3,109,1,IN/OUT1,1,632,2,3,1,2.69,632,1,3,109,1,IN/OUT1,2,81,2,7,1,2.58,81,1,2,109,1,IN/OUT1,3,36,1,4,1,3.62,36,1,3,109,1,leading/trailing0,2,19,1,1,1,3.19,19,1,2,109,1,IN/OUT1,2,48,1,4,1,4.17,48,1,3,109,1,IN/OUT1,4,520,3,4,1,6.99,520,1,3,109,1,leading/trailing0,3,5,1,1,1,3.77,5,1,2,109,1,leading/trailing1,4,410,3,6,1,4.46,410,1,3,109,1,leading/trailing1,4,70,2,4,1,3.29,70,1,2,109,1,leading/trailing1,2,193,1,6,1,5.77,193,1,3,109,1,IN/OUT1,2,89,1,7,1,3.83,89,1,2,109,1,IN/OUT1,4,20,2,7,1,2.91,20,1,2,109,1,leading/trailing0,3,9,1,1,1,2.63,9,1,2,109,1,leading/trailing1,1,220,1,3,1,2.48,220,1,3,109,1,IN/OUT1,4,950,3,5,1,4.53,950,1,3,109,1,leading/trailing0,4,250,3,1,1,10.9,250,1,3,109,1,leading/trailing0,2,563,3,1,1,6.81,563,1,3,109,1,IN/OUT1,4,720,3,6,1,3.47,720,1,3,109,1,leading/trailing1,3,2,1,4,1,2.94,2,1,2,109,1,leading/trailing1,2,71,2,5,1,3.18,71,1,2,109,1,IN/OUT0,4,990,3,1,1,4.17,990,1,3,109,1,leading/trailing1,3,11,1,4,1,7.96,11,1,3,109,1,leading/trailing1,3,57,1,4,1,4.15,77,0,3,109,1,leading/trailing1,3,51,1,6,1,9.64,51,1,3,109,1,leading/trailing1,3,5,1,6,1,4.29,5,1,2,109,1,leading/trailing1,3,92,1,4,1,2.99,92,1,3,109,1,leading/trailing1,2,72,1,7,1,2.97,72,1,3,109,1,IN/OUT1,1,796,2,6,1,3.11,796,1,3,109,1,IN/OUT1,3,7,1,5,1,3.34,7,1,2,109,1,leading/trailing1,4,50,2,7,1,7.17,50,1,2,109,1,leading/trailing1,1,58,2,5,1,2.01,58,1,2,109,1,IN/OUT1,4,50,2,7,1,2.01,0,0,2,109,1,leading/trailing1,3,21,1,6,1,2.88,21,1,3,109,1,leading/trailing1,2,888,1,7,1,5.17,888,1,3,109,1,IN/OUT0,3,31,1,1,1,4.04,31,1,3,109,1,leading/trailing0,2,607,2,1,1,4.37,607,1,3,109,1,IN/OUT1,3,4,1,7,1,2.37,4,1,2,109,1,leading/trailing1,3,53,1,7,1,6.66,53,1,3,109,1,leading/trailing1,2,46,2,5,1,2.29,46,1,2,109,1,IN/OUT1,4,620,3,5,1,4.18,62,0,3,109,1,leading/trailing1,2,165,3,4,1,4.36,165,1,3,109,1,IN/OUT0,2,26,1,1,1,4.51,26,1,2,109,1,IN/OUT1,3,34,1,6,1,2.56,34,1,3,109,1,leading/trailing1,4,10,2,5,1,2.77,10,1,2,109,1,leading/trailing1,3,6,1,6,1,3.52,6,1,2,109,1,leading/trailing0,3,23,1,1,1,4.76,23,1,3,109,1,leading/trailing1,3,2,1,5,1,2.73,2,1,2,109,1,leading/trailing1,3,68,1,6,1,2.66,68,1,3,109,1,leading/trailing1,3,49,1,5,1,6.41,49,1,3,109,1,leading/trailing1,2,91,3,7,1,3.75,91,1,3,109,1,IN/OUT1,2,36,1,7,1,2.74,36,1,2,109,1,IN/OUT1,1,27,1,4,1,1.94,27,1,2,109,1,IN/OUT1,4,50,2,5,1,4.91,50,1,2,109,1,leading/trailing1,4,80,2,7,1,4.45,50,0,2,109,1,leading/trailing1,1,36,1,4,1,4.08,36,1,2,109,1,IN/OUT1,3,7,1,6,0,4.51,7,1,2,109,1,leading/trailing0,1,367,2,2,1,4.98,367,1,3,109,1,IN/OUT0,4,90,2,1,1,4.78,90,1,2,109,1,leading/trailing1,4,810,3,7,1,3.24,810,1,3,109,1,leading/trailing0,2,26,1,1,1,3.61,26,1,2,109,1,IN/OUT1,1,615,1,3,1,3.78,615,1,3,109,1,IN/OUT0,1,27,2,2,1,3.73,27,1,2,109,1,IN/OUT1,1,637,3,3,1,2.95,637,1,3,109,1,IN/OUT1,1,18,1,3,1,2.41,18,1,2,109,1,IN/OUT1,4,480,3,6,1,3.25,480,1,3,109,1,leading/trailing1,1,81,1,3,1,1.68,81,1,2,110,1,IN/OUT1,2,34,1,7,1,2.06,34,1,2,110,1,IN/OUT0,2,315,1,1,1,3.75,315,1,3,110,1,IN/OUT0,3,7,1,1,1,3.48,7,1,2,110,1,leading/trailing1,3,48,1,5,1,1.2,48,1,3,110,1,leading/trailing1,4,150,3,7,1,1.99,150,1,3,110,1,leading/trailing1,3,5,1,6,1,1.63,5,1,2,110,1,leading/trailing1,4,50,2,7,1,2.09,50,1,2,110,1,leading/trailing1,2,458,2,6,1,2.86,458,1,3,110,1,IN/OUT1,4,170,3,6,1,2.43,170,1,3,110,1,leading/trailing0,4,10,2,1,1,2.52,10,1,2,110,1,leading/trailing1,3,1,1,6,1,1.48,1,1,2,110,1,leading/trailing1,3,9,1,6,1,1.64,9,1,2,110,1,leading/trailing1,3,7,1,6,1,1.7,7,1,2,110,1,leading/trailing1,4,20,2,5,1,1.23,20,1,2,110,1,leading/trailing1,2,39,1,7,1,1.15,39,1,2,110,1,IN/OUT1,4,540,3,5,1,1.49,0,0,3,110,1,leading/trailing1,3,71,1,7,1,2.47,71,1,3,110,1,leading/trailing1,3,1,1,7,1,2.36,1,1,2,110,1,leading/trailing1,4,10,2,6,1,1.71,10,1,2,110,1,leading/trailing0,3,75,1,1,1,2.58,75,1,3,110,1,leading/trailing0,2,51,2,1,1,4.04,51,1,2,110,1,IN/OUT0,4,80,2,1,1,6.31,80,1,2,110,1,leading/trailing1,1,89,1,5,1,1.7,89,1,2,110,1,IN/OUT1,4,60,2,4,1,5.05,60,1,2,110,1,leading/trailing1,1,904,1,5,1,2.47,904,1,3,110,1,IN/OUT1,2,98,1,6,1,1.82,98,1,3,110,1,IN/OUT1,2,133,3,7,1,1.85,133,1,3,110,1,IN/OUT1,2,880,3,7,1,3.14,880,1,3,110,1,IN/OUT1,4,90,2,4,1,1.39,90,1,2,110,1,leading/trailing0,3,56,1,1,1,4.42,56,1,3,110,1,leading/trailing0,1,19,2,2,1,3.93,19,1,2,110,1,IN/OUT1,4,960,3,6,1,2.68,960,1,3,110,1,leading/trailing1,1,66,2,3,1,2.24,66,1,2,110,1,IN/OUT1,1,83,1,5,1,4.53,83,1,2,110,1,IN/OUT1,3,84,1,7,1,1.46,84,1,3,110,1,leading/trailing1,2,61,2,5,1,1.18,61,1,2,110,1,IN/OUT1,2,26,2,6,1,15.9,26,1,2,110,2,IN/OUT1,1,913,1,4,1,2.11,913,1,3,110,1,IN/OUT0,2,673,3,1,1,2.68,673,1,3,110,1,IN/OUT1,2,72,2,6,1,1.93,72,1,2,110,1,IN/OUT0,3,2,1,1,1,2.78,2,1,2,110,1,leading/trailing1,1,530,2,3,1,1.58,534,0,3,110,1,IN/OUT1,3,98,1,5,1,2.23,93,0,3,110,1,leading/trailing1,2,386,3,7,1,2.48,386,1,3,110,1,IN/OUT0,4,950,3,1,1,3.14,915,0,3,110,1,leading/trailing1,3,5,1,7,1,1.91,5,1,2,110,1,leading/trailing1,2,471,3,7,1,3.01,471,1,3,110,1,IN/OUT1,4,50,2,4,1,1.72,50,1,2,110,1,leading/trailing1,4,80,2,4,1,1.29,80,1,2,110,1,leading/trailing1,1,73,2,4,1,1.43,73,1,2,110,1,IN/OUT1,2,98,2,7,1,1.5,98,1,2,110,1,IN/OUT1,3,49,1,5,1,2.53,49,1,3,110,1,leading/trailing1,1,673,1,3,1,2.2,673,1,3,110,1,IN/OUT0,1,50,1,2,1,1.28,50,1,2,110,1,IN/OUT1,4,950,3,4,1,5.73,950,1,3,110,1,leading/trailing1,1,514,3,6,1,2.27,514,1,3,110,1,IN/OUT1,3,67,1,4,1,3.27,67,1,3,110,1,leading/trailing0,1,518,1,2,0,2.07,67,0,3,110,1,IN/OUT0,4,670,3,1,1,3.41,670,1,3,110,1,leading/trailing1,1,40,1,3,1,1.32,40,1,2,110,1,IN/OUT0,1,512,1,2,1,2.23,512,1,3,110,1,IN/OUT0,2,367,1,1,1,1.65,367,1,3,110,1,IN/OUT1,1,10,1,3,1,1.36,10,1,2,110,1,IN/OUT1,1,258,1,3,1,1.2,258,1,3,110,1,IN/OUT1,4,50,2,5,1,2.82,50,1,2,110,1,leading/trailing1,1,20,1,3,1,1.5,20,1,2,110,1,IN/OUT0,3,5,1,1,1,3.4,5,1,2,110,1,leading/trailing1,1,385,1,5,1,1.76,385,1,3,110,1,IN/OUT1,1,59,2,3,1,1.53,59,1,2,110,1,IN/OUT1,4,270,3,7,1,1.72,274,0,3,110,1,leading/trailing1,4,960,3,6,1,1.76,964,0,3,110,1,leading/trailing0,4,160,3,1,1,3.04,160,1,3,110,1,leading/trailing1,2,46,2,6,1,3.67,46,1,2,110,1,IN/OUT0,2,94,2,1,1,1.46,94,1,2,110,1,IN/OUT1,2,74,1,7,1,1.7,74,1,2,110,1,IN/OUT1,2,567,1,6,1,1.52,567,1,3,110,1,IN/OUT1,4,750,3,4,1,2.33,750,1,3,110,1,leading/trailing1,1,525,2,4,1,1.58,525,1,3,110,1,IN/OUT1,2,615,1,6,1,2.83,615,1,3,110,1,IN/OUT1,2,14,1,7,1,1.45,14,1,2,110,1,IN/OUT0,3,1,1,1,1,1.74,1,1,2,110,1,leading/trailing1,2,674,2,6,1,1.27,674,1,3,110,1,IN/OUT0,1,89,3,2,1,1.95,89,1,3,110,1,IN/OUT1,4,960,3,7,1,2.09,960,1,3,110,1,leading/trailing1,3,36,1,7,1,2.22,36,1,3,110,1,leading/trailing1,4,270,3,5,1,1.34,270,1,3,110,1,leading/trailing1,2,159,2,6,1,1.62,159,1,3,110,1,IN/OUT1,2,347,3,6,1,1.24,349,0,3,110,1,IN/OUT1,3,5,1,7,1,1.44,5,1,2,110,1,leading/trailing1,1,65,1,3,1,1.4,65,1,2,110,1,IN/OUT1,1,685,1,3,1,1.64,685,1,3,110,1,IN/OUT0,3,28,1,1,1,3.22,28,1,3,110,1,leading/trailing0,4,50,2,1,1,3.29,50,1,2,110,1,leading/trailing1,4,60,2,5,1,1.2,60,1,2,110,1,leading/trailing0,2,64,2,1,1,1.58,64,1,2,110,1,IN/OUT1,3,58,1,7,1,1.18,58,1,3,110,1,leading/trailing1,2,77,2,7,1,2.61,77,1,2,110,1,IN/OUT1,3,58,1,4,1,1.13,58,1,3,110,1,leading/trailing0,1,785,3,2,1,1.4,785,1,3,110,1,IN/OUT0,1,17,2,2,1,2.36,17,1,2,110,1,IN/OUT1,1,89,1,3,1,1.16,89,1,2,110,1,IN/OUT1,3,9,1,7,1,1.03,9,1,2,110,1,leading/trailing0,3,97,1,1,1,1.6,97,1,3,110,1,leading/trailing1,3,8,1,6,1,1.72,8,1,2,110,1,leading/trailing1,3,94,1,7,1,1.49,94,1,3,110,1,leading/trailing0,4,30,2,1,1,1.87,30,1,2,110,1,leading/trailing1,3,8,1,6,1,1.27,8,1,2,110,1,leading/trailing1,4,350,3,4,1,2.29,350,1,3,110,1,leading/trailing0,1,57,2,2,1,1.99,57,1,2,110,1,IN/OUT1,3,4,1,5,1,1.37,4,1,2,110,1,leading/trailing1,4,80,2,5,1,1.19,80,1,2,110,1,leading/trailing1,1,817,1,4,1,1.25,817,1,3,110,1,IN/OUT1,4,540,3,7,1,2.4,540,1,3,110,1,leading/trailing0,4,330,3,1,1,2.06,330,1,3,110,1,leading/trailing1,2,425,3,5,1,1.38,425,1,3,110,1,IN/OUT1,4,30,2,6,1,1.7,30,1,2,110,1,leading/trailing1,3,11,1,5,1,1.07,11,1,3,110,1,leading/trailing1,1,436,1,6,1,1.59,436,1,3,110,1,IN/OUT1,2,17,1,6,1,1.15,17,1,2,110,1,IN/OUT1,2,29,1,7,1,1.58,29,1,2,110,1,IN/OUT1,3,63,1,5,1,3.25,63,1,3,110,1,leading/trailing1,4,30,2,5,1,1.16,30,1,2,110,1,leading/trailing1,1,222,1,3,1,1.36,222,1,3,110,1,IN/OUT1,1,89,1,5,1,1.25,89,1,2,110,1,IN/OUT0,2,71,2,1,1,2.02,71,1,2,110,1,IN/OUT0,2,964,3,1,1,2.26,964,1,3,110,1,IN/OUT1,3,4,1,7,1,2.17,4,1,2,110,1,leading/trailing0,4,40,2,1,1,4.02,40,1,2,111,1,leading/trailing1,2,206,3,5,1,2.95,206,1,3,111,1,IN/OUT1,3,4,1,5,1,3.07,4,1,2,111,1,leading/trailing1,2,960,3,5,1,1.93,960,1,3,111,1,IN/OUT1,3,61,1,4,1,2.61,61,1,3,111,1,leading/trailing1,4,60,2,6,1,2.36,60,1,2,111,1,leading/trailing1,4,410,3,4,1,2.14,410,1,3,111,1,leading/trailing1,1,238,3,5,1,2.54,238,1,3,111,1,IN/OUT1,4,920,3,4,1,2.39,920,1,3,111,1,leading/trailing0,2,14,2,1,1,1.93,14,1,2,111,1,IN/OUT1,1,6,2,3,1,2.54,6,1,2,111,1,IN/OUT0,1,70,1,2,1,3.58,70,1,2,111,1,IN/OUT1,3,15,1,4,1,4.24,15,1,3,111,1,leading/trailing0,2,717,2,1,1,3.5,717,1,3,111,1,IN/OUT1,1,85,1,5,1,7.2,5,0,2,111,1,IN/OUT1,1,31,1,3,1,4.11,31,1,2,111,1,IN/OUT1,2,47,2,6,1,3.67,47,1,2,111,1,IN/OUT1,1,89,2,3,1,2.95,89,1,3,111,1,IN/OUT1,1,821,1,3,1,5.88,821,1,3,111,1,IN/OUT1,1,17,2,3,1,5.33,17,1,2,111,1,IN/OUT1,4,160,3,4,1,2.28,160,1,3,111,1,leading/trailing1,1,84,1,4,1,8.6,84,1,2,111,1,IN/OUT1,1,90,1,3,1,3.57,90,1,2,111,1,IN/OUT1,4,620,3,7,1,5.04,624,0,3,111,1,leading/trailing0,2,46,1,1,1,4.24,46,1,2,111,1,IN/OUT1,1,780,2,3,1,4.25,780,1,3,111,1,IN/OUT0,2,27,1,1,1,3.76,27,1,2,111,1,IN/OUT1,4,80,2,6,1,18.6,80,1,2,111,2,leading/trailing1,3,1,1,4,1,3.07,1,1,2,111,1,leading/trailing0,3,7,1,1,1,2.57,7,1,2,111,1,leading/trailing1,1,752,1,3,1,8.89,754,0,3,111,1,IN/OUT1,1,751,3,3,1,3.85,751,1,3,111,1,IN/OUT0,1,48,2,2,1,2.46,48,1,2,111,1,IN/OUT1,3,66,1,5,1,11.5,66,1,3,111,2,leading/trailing1,1,579,3,4,1,1.94,574,0,3,111,1,IN/OUT1,2,126,2,7,0,4.06,126,1,3,111,1,IN/OUT1,3,46,1,6,1,5.98,46,1,3,111,1,leading/trailing0,2,605,2,1,1,7.38,605,1,3,111,1,IN/OUT1,4,330,3,7,1,3.53,330,1,3,111,1,leading/trailing1,3,4,1,6,1,4.04,4,1,2,111,1,leading/trailing1,1,64,1,3,1,2.61,64,1,2,111,1,IN/OUT1,1,955,1,6,1,4.25,955,1,3,111,1,IN/OUT0,3,5,1,1,1,2.74,5,1,2,111,1,leading/trailing1,4,560,3,6,1,6.2,560,1,3,111,1,leading/trailing1,3,1,1,6,1,2.62,1,1,2,111,1,leading/trailing0,4,10,2,1,1,6.26,10,1,2,111,1,leading/trailing1,2,71,2,7,1,2.86,71,1,3,111,1,IN/OUT1,2,90,2,5,1,7.12,90,1,2,111,1,IN/OUT0,3,26,1,1,1,5.62,26,1,3,111,1,leading/trailing1,4,90,2,4,1,2.2,90,1,2,111,1,leading/trailing0,1,425,3,2,1,13.9,425,1,3,111,2,IN/OUT1,3,1,1,7,1,2.73,1,1,2,111,1,leading/trailing1,2,290,3,4,1,2.91,290,1,3,111,1,IN/OUT0,4,60,2,1,1,2.96,60,1,2,111,1,leading/trailing0,1,370,2,2,1,3.04,370,1,3,111,1,IN/OUT1,4,190,3,5,1,11.7,190,1,3,111,2,leading/trailing0,1,930,1,2,1,5.56,930,1,3,111,1,IN/OUT0,4,720,3,1,1,12.7,720,1,3,111,2,leading/trailing1,1,393,2,3,1,4.01,393,1,3,111,1,IN/OUT1,2,6,1,4,1,2.25,6,1,2,111,1,IN/OUT1,4,70,2,4,1,1.44,70,1,2,111,1,leading/trailing1,2,98,2,7,1,4.47,98,1,2,111,1,IN/OUT1,4,80,2,6,1,2.02,80,1,2,111,1,leading/trailing1,3,99,1,5,1,4.83,99,1,3,111,1,leading/trailing1,3,34,1,7,1,4.61,34,1,3,111,1,leading/trailing1,1,59,3,4,1,2.32,59,1,3,111,1,IN/OUT1,2,762,2,6,1,3.95,762,1,3,111,1,IN/OUT1,3,5,1,7,1,3.33,5,1,2,111,1,leading/trailing1,3,48,1,6,1,2.61,48,1,3,111,1,leading/trailing1,4,370,3,5,1,3.2,370,1,3,111,1,leading/trailing1,2,93,2,7,1,4,93,1,2,111,1,IN/OUT1,4,860,3,4,1,4.16,860,1,3,111,1,leading/trailing0,3,67,1,1,1,4.22,67,1,3,111,1,leading/trailing1,4,20,2,4,1,1.53,20,1,2,111,1,leading/trailing1,2,68,1,6,1,1.95,68,1,2,111,1,IN/OUT1,3,35,1,6,0,4.52,350,0,3,111,1,leading/trailing0,4,140,3,1,1,4.13,140,1,3,111,1,leading/trailing1,4,740,3,6,1,3.3,740,1,3,111,1,leading/trailing1,3,5,1,5,1,3.45,5,1,2,111,1,leading/trailing1,1,61,2,3,1,1.94,61,1,2,111,1,IN/OUT1,2,233,3,7,1,2.35,233,1,3,111,1,IN/OUT1,2,36,3,5,1,1.66,36,1,3,111,1,IN/OUT1,2,105,2,6,1,2.43,105,1,3,111,1,IN/OUT0,3,4,1,1,1,6.26,4,1,2,111,1,leading/trailing1,3,32,1,6,1,3.43,32,1,3,111,1,leading/trailing1,3,8,1,7,1,3.32,8,1,2,111,1,leading/trailing1,1,757,3,4,1,5.41,757,1,3,111,1,IN/OUT0,2,297,1,1,1,3.45,297,1,3,111,1,IN/OUT1,1,856,3,3,1,2.22,856,1,3,111,1,IN/OUT1,4,260,3,4,1,3.58,260,1,3,111,1,leading/trailing1,2,34,1,7,1,3.27,34,1,2,111,1,IN/OUT1,4,60,2,7,1,3.81,60,1,2,111,1,leading/trailing0,1,75,1,2,1,2.13,75,1,2,111,1,IN/OUT0,4,70,2,1,1,3.61,70,1,2,111,1,leading/trailing1,4,80,2,5,1,2.2,80,1,2,111,1,leading/trailing1,4,30,2,6,1,5.42,30,1,2,111,1,leading/trailing1,3,69,1,5,1,3.87,69,1,3,111,1,leading/trailing1,3,2,1,6,1,4.84,2,1,2,111,1,leading/trailing1,2,159,2,5,1,5.97,159,1,3,111,1,IN/OUT1,2,97,2,7,1,1.91,97,1,2,111,1,IN/OUT0,2,564,3,1,1,3.66,564,1,3,111,1,IN/OUT1,4,50,2,6,1,2.38,50,1,2,111,1,leading/trailing0,3,21,1,1,1,3.22,21,1,3,111,1,leading/trailing1,2,21,2,7,1,3.7,21,1,2,111,1,IN/OUT1,1,81,1,5,1,10.7,81,1,2,111,1,IN/OUT1,4,580,3,7,1,10.4,580,1,3,111,1,leading/trailing0,3,1,1,1,1,2.95,1,1,2,111,1,leading/trailing0,1,52,1,2,1,4.55,52,1,2,111,1,IN/OUT1,2,317,2,5,1,2.49,317,1,3,111,1,IN/OUT1,3,8,1,5,1,9.15,8,1,2,111,1,leading/trailing1,4,80,2,7,1,2.23,80,1,2,111,1,leading/trailing1,3,69,1,7,1,2.5,69,1,3,111,1,leading/trailing1,3,7,1,7,1,2.15,7,1,2,111,1,leading/trailing0,1,658,3,2,1,1.64,658,1,3,111,1,IN/OUT1,4,50,2,5,1,1.64,50,1,2,111,1,leading/trailing0,4,820,3,1,1,1.78,820,1,3,111,1,leading/trailing0,2,92,2,1,1,1.72,920,0,2,111,1,IN/OUT1,2,498,3,7,1,3.28,498,1,3,111,1,IN/OUT1,1,49,1,5,1,1.6,49,1,2,111,1,IN/OUT1,3,8,1,4,1,2.2,8,1,2,111,1,leading/trailing1,1,66,2,3,1,2.45,66,1,2,111,1,IN/OUT1,2,91,2,6,1,1.47,91,1,2,111,1,IN/OUT0,4,320,3,1,1,2.63,320,1,3,111,1,leading/trailing1,2,1,1,7,1,2.27,1,1,2,111,1,IN/OUT1,2,85,2,6,1,2.52,85,1,2,111,1,IN/OUT0,3,26,1,1,1,3.49,26,1,3,111,1,leading/trailing1,3,94,1,7,1,1.77,94,1,3,111,1,leading/trailing1,1,35,1,3,0,3.87,35,1,2,111,1,IN/OUT1,1,8,2,3,1,2.76,8,1,2,112,1,IN/OUT0,2,70,2,1,1,3.53,70,1,2,112,1,IN/OUT1,1,395,2,4,1,2.12,395,1,3,112,1,IN/OUT0,1,91,1,2,1,2.74,91,1,2,112,1,IN/OUT0,3,69,1,1,1,4.69,69,1,3,112,1,leading/trailing1,3,73,1,5,1,2.08,73,1,3,112,1,leading/trailing1,1,3,2,5,1,2.07,3,1,2,112,1,IN/OUT1,3,8,1,6,1,2.21,8,1,2,112,1,leading/trailing1,4,40,2,7,1,2.11,40,1,2,112,1,leading/trailing1,1,11,1,3,1,1.59,11,1,2,112,1,IN/OUT1,1,661,2,3,1,1.67,661,1,3,112,1,IN/OUT1,2,20,1,6,1,1.86,20,1,2,112,1,IN/OUT1,3,69,1,5,1,1.83,69,1,3,112,1,leading/trailing0,4,40,2,1,1,2.12,40,1,2,112,1,leading/trailing1,2,222,1,6,1,2.62,222,1,3,112,1,IN/OUT1,3,1,1,7,1,1.74,1,1,2,112,1,leading/trailing0,3,36,1,1,1,2.3,36,1,3,112,1,leading/trailing1,4,870,3,5,1,1.08,870,1,3,112,1,leading/trailing1,4,10,2,7,1,1.55,10,1,2,112,1,leading/trailing1,2,25,2,4,1,1.61,25,1,2,112,1,IN/OUT1,2,232,1,6,0,2.99,232,1,3,112,1,IN/OUT1,2,24,1,7,1,1.68,24,1,2,112,1,IN/OUT1,1,750,1,3,1,2.37,750,1,3,112,1,IN/OUT0,3,3,1,1,1,3.12,3,1,2,112,1,leading/trailing1,2,55,2,4,1,1.49,55,1,2,112,1,IN/OUT1,4,60,2,6,1,2.06,60,1,2,112,1,leading/trailing1,1,23,2,3,1,1.56,23,1,3,112,1,IN/OUT1,4,20,2,7,1,1.46,20,1,2,112,1,leading/trailing1,4,190,3,4,1,2.01,190,1,3,112,1,leading/trailing0,4,40,2,1,1,1.59,40,1,2,112,1,leading/trailing0,2,82,2,1,1,1.52,82,1,2,112,1,IN/OUT1,2,71,2,6,1,1.48,71,1,2,112,1,IN/OUT1,1,77,1,3,1,1.19,77,1,2,112,1,IN/OUT1,2,434,2,7,1,2.14,434,1,3,112,1,IN/OUT1,2,53,1,4,1,1.6,53,1,2,112,1,IN/OUT1,2,540,1,6,1,2.81,540,1,3,112,1,IN/OUT0,1,145,3,2,1,1.71,145,1,3,112,1,IN/OUT1,3,3,1,5,1,1.25,3,1,2,112,1,leading/trailing1,4,90,2,7,1,1.4,90,1,2,112,1,leading/trailing1,2,614,2,6,1,2.65,614,1,3,112,1,IN/OUT1,3,93,1,6,1,2.24,93,1,3,112,1,leading/trailing1,3,94,1,5,1,1.97,94,1,3,112,1,leading/trailing1,2,97,2,6,1,1.52,97,1,2,112,1,IN/OUT1,3,58,1,7,1,2.99,58,1,3,112,1,leading/trailing1,3,53,1,7,1,1.36,53,1,3,112,1,leading/trailing1,1,25,1,3,1,0.998,25,1,2,112,1,IN/OUT1,1,17,1,3,1,1.02,17,1,2,112,1,IN/OUT1,4,330,3,5,1,1.05,330,1,3,112,1,leading/trailing1,3,8,1,6,1,3.08,8,1,2,112,1,leading/trailing0,4,50,2,1,1,2.77,50,1,2,112,1,leading/trailing0,1,61,1,2,1,2.65,1,0,2,112,1,IN/OUT0,4,520,3,1,1,2.54,520,1,3,112,1,leading/trailing1,3,8,1,6,1,1.73,8,1,2,112,1,leading/trailing1,2,9,1,6,1,1.53,9,1,2,112,1,IN/OUT1,3,13,1,7,1,2.13,13,1,3,112,1,leading/trailing0,3,5,1,1,1,1.66,5,1,2,112,1,leading/trailing1,1,26,2,3,1,1.01,26,1,3,112,1,IN/OUT1,4,40,2,7,1,2.43,40,1,2,112,1,leading/trailing0,1,17,2,2,1,1.97,17,1,2,112,1,IN/OUT0,2,162,1,1,1,1.88,162,1,3,112,1,IN/OUT1,3,4,1,5,1,1.24,4,1,2,112,1,leading/trailing1,4,410,3,6,1,1.41,410,1,3,112,1,leading/trailing1,3,31,1,6,1,2.22,31,1,3,112,1,leading/trailing1,4,440,3,5,1,1.4,440,1,3,112,1,leading/trailing0,3,8,1,1,1,1.54,8,1,2,112,1,leading/trailing1,4,670,3,4,1,1.68,670,1,3,112,1,leading/trailing1,1,393,2,3,1,1.34,393,1,3,112,1,IN/OUT0,2,357,1,1,1,2.14,357,1,3,112,1,IN/OUT1,4,10,2,5,1,1.55,10,1,2,112,1,leading/trailing1,1,76,1,4,1,1.11,76,1,2,112,1,IN/OUT1,4,50,2,4,1,1.95,0,0,2,112,1,leading/trailing0,1,52,1,2,1,2.44,52,1,2,112,1,IN/OUT1,1,769,1,4,1,1.34,769,1,3,112,1,IN/OUT1,3,24,1,4,1,2.17,24,1,3,112,1,leading/trailing1,2,42,2,7,1,1.24,42,1,2,112,1,IN/OUT1,2,11,1,5,1,1.39,11,1,2,112,1,IN/OUT1,1,53,2,3,1,1.39,53,1,2,112,1,IN/OUT1,2,15,2,6,1,0.992,15,1,2,112,1,IN/OUT1,4,450,3,6,1,1.32,450,1,3,112,1,leading/trailing1,3,88,1,6,1,1.84,88,1,3,112,1,leading/trailing1,1,599,3,6,1,2.11,599,1,3,112,1,IN/OUT0,1,175,2,2,1,1.63,175,1,3,112,1,IN/OUT1,3,1,1,7,1,2.11,1,1,2,112,1,leading/trailing1,4,90,2,5,1,1.48,90,1,2,112,1,leading/trailing1,1,873,3,3,1,0.783,873,1,3,112,1,IN/OUT1,4,20,2,7,1,1.12,20,1,2,112,1,leading/trailing0,4,860,3,1,1,2.51,860,1,3,112,1,leading/trailing1,1,681,3,3,1,0.914,681,1,3,112,1,IN/OUT1,3,7,1,5,1,0.849,7,1,2,112,1,leading/trailing0,3,7,1,1,0,1.22,7,1,2,112,1,leading/trailing1,1,113,3,5,1,1.25,113,1,3,112,1,IN/OUT1,2,332,1,7,1,2.26,332,1,3,112,1,IN/OUT1,4,210,3,4,1,1.56,210,1,3,112,1,leading/trailing1,4,70,2,5,1,1.15,70,1,2,112,1,leading/trailing0,4,990,3,1,1,2.61,990,1,3,112,1,leading/trailing1,4,50,2,7,1,1.5,50,1,2,112,1,leading/trailing1,4,460,3,7,1,1.44,460,1,3,112,1,leading/trailing1,2,428,2,6,1,1.99,428,1,3,112,1,IN/OUT1,4,780,3,4,1,1.68,780,1,3,112,1,leading/trailing0,3,29,1,1,1,1.81,29,1,3,112,1,leading/trailing1,2,568,1,5,1,1.57,568,1,3,112,1,IN/OUT1,1,16,2,3,1,1.03,16,1,2,112,1,IN/OUT1,1,893,2,3,1,1.12,893,1,3,112,1,IN/OUT0,1,774,1,2,1,1.25,774,1,3,112,1,IN/OUT0,4,80,2,1,1,1.52,80,1,2,112,1,leading/trailing1,1,36,1,5,1,1.13,36,1,2,112,1,IN/OUT0,2,331,1,1,1,1.56,331,1,3,112,1,IN/OUT1,3,42,1,5,1,1.74,42,1,3,112,1,leading/trailing1,1,63,2,3,1,1.64,63,1,2,112,1,IN/OUT0,3,89,1,1,1,2.06,89,1,3,112,1,leading/trailing0,2,129,2,1,1,1.85,129,1,3,112,1,IN/OUT1,2,792,3,7,1,1.11,792,1,3,112,1,IN/OUT1,3,6,1,5,1,1.39,6,1,2,112,1,leading/trailing1,3,8,1,4,1,1.33,8,1,2,112,1,leading/trailing1,3,1,1,4,1,1.81,1,1,2,112,1,leading/trailing1,3,55,1,4,1,1.27,55,1,3,112,1,leading/trailing0,2,43,1,1,1,1.56,43,1,2,112,1,IN/OUT1,4,240,3,4,1,1.2,240,1,3,112,1,leading/trailing1,2,644,1,5,1,1.15,644,1,3,112,1,IN/OUT1,1,37,1,4,1,1.26,37,1,2,112,1,IN/OUT1,2,430,3,6,1,0.768,430,1,3,112,1,IN/OUT0,1,437,3,2,1,1.14,437,1,3,112,1,IN/OUT1,2,27,1,6,1,1.81,27,1,2,112,1,IN/OUT1,2,468,3,7,1,1.7,468,1,3,112,1,IN/OUT1,4,660,3,6,1,0.82,660,1,3,112,1,leading/trailing0,2,36,1,1,1,2.21,36,1,2,112,1,IN/OUT1,3,3,1,6,1,1.74,3,1,2,112,1,leading/trailing0,4,150,3,1,1,1.83,50,0,3,112,1,leading/trailing1,4,890,3,5,1,6.33,890,1,3,113,1,leading/trailing1,1,21,2,3,1,2.97,1,0,2,113,1,IN/OUT1,1,358,1,5,1,4.17,358,1,3,113,1,IN/OUT0,4,330,3,1,1,5.13,330,1,3,113,1,leading/trailing0,4,990,3,1,1,9.18,990,1,3,113,1,leading/trailing1,3,25,1,6,1,5.1,25,1,3,113,1,leading/trailing0,4,10,2,1,1,3.59,0,0,2,113,1,leading/trailing1,3,2,1,7,1,5.22,2,1,2,113,1,leading/trailing1,1,419,1,4,1,6.27,419,1,3,113,1,IN/OUT1,3,27,1,7,1,3.17,27,1,3,113,1,leading/trailing1,1,88,1,4,1,2.08,88,1,2,113,1,IN/OUT1,3,7,1,6,1,4.85,7,1,2,113,1,leading/trailing0,2,93,2,1,1,5.96,93,1,2,113,1,IN/OUT0,4,70,2,1,1,3.36,70,1,2,113,1,leading/trailing1,1,93,2,5,1,3.24,93,1,2,113,1,IN/OUT1,2,5,1,6,1,3.1,5,1,2,113,1,IN/OUT1,1,42,1,3,1,3.63,42,1,2,113,1,IN/OUT1,3,75,1,5,1,4.2,75,1,3,113,1,leading/trailing0,3,32,1,1,1,4.74,32,1,3,113,1,leading/trailing1,2,960,2,7,1,4.89,960,1,3,113,1,IN/OUT1,3,63,1,6,1,4.11,63,1,3,113,1,leading/trailing1,3,76,1,5,1,4.14,76,1,3,113,1,leading/trailing1,1,38,2,5,1,2.39,38,1,2,113,1,IN/OUT1,2,481,3,5,1,4.6,481,1,3,113,1,IN/OUT0,4,30,2,1,1,4.42,30,1,2,113,1,leading/trailing1,4,30,2,7,1,2.19,30,1,2,113,1,leading/trailing1,4,50,2,5,1,3.22,50,1,2,113,1,leading/trailing0,2,461,3,1,1,8.14,461,1,3,113,1,IN/OUT0,1,70,1,2,1,2.96,70,1,2,113,1,IN/OUT1,2,90,2,7,1,4.6,90,1,2,113,1,IN/OUT1,3,2,1,4,1,2.34,2,1,2,113,1,leading/trailing0,1,916,1,2,1,4.74,916,1,3,113,1,IN/OUT1,1,21,1,4,1,4.19,21,1,2,113,1,IN/OUT1,3,4,1,5,1,2.95,4,1,2,113,1,leading/trailing1,1,669,3,3,1,3.08,669,1,3,113,1,IN/OUT1,1,375,1,4,1,6.4,375,1,3,113,1,IN/OUT1,4,180,3,6,1,2.87,180,1,3,113,1,leading/trailing0,3,36,1,1,1,4.01,36,1,3,113,1,leading/trailing1,3,1,1,6,1,2.54,1,1,2,113,1,leading/trailing1,4,280,3,7,1,3.66,280,1,3,113,1,leading/trailing1,3,8,1,4,1,2.39,8,1,2,113,1,leading/trailing1,4,70,2,5,1,3.78,70,1,2,113,1,leading/trailing0,1,68,1,2,1,2.85,68,1,2,113,1,IN/OUT0,1,305,3,2,1,3.07,305,1,3,113,1,IN/OUT1,2,79,1,7,1,3.17,79,1,2,113,1,IN/OUT1,1,6,2,3,1,2.77,6,1,2,113,1,IN/OUT0,4,170,3,1,1,3.32,170,1,3,113,1,leading/trailing1,3,4,1,5,1,2.65,4,1,2,113,1,leading/trailing1,1,349,3,3,1,3.32,349,1,3,113,1,IN/OUT1,3,43,1,5,1,2.92,3,0,3,113,1,leading/trailing0,3,91,1,1,1,5.23,91,1,3,113,1,leading/trailing0,3,5,1,1,1,4.49,5,1,2,113,1,leading/trailing1,2,392,1,7,1,3.9,392,1,3,113,1,IN/OUT0,2,28,1,1,1,10.9,28,1,2,113,1,IN/OUT1,4,380,3,4,1,3.68,380,1,3,113,1,leading/trailing1,4,740,3,7,1,3.31,740,1,3,113,1,leading/trailing1,3,65,1,5,1,5.53,65,1,3,113,1,leading/trailing1,1,702,3,3,1,8.95,702,1,3,113,1,IN/OUT1,3,42,1,6,1,2.87,42,1,3,113,1,leading/trailing1,4,80,2,7,1,3.49,80,1,2,113,1,leading/trailing1,2,46,2,7,1,3.34,46,1,2,113,1,IN/OUT1,3,1,1,4,1,2.62,1,1,2,113,1,leading/trailing1,4,50,2,7,1,9.25,50,1,2,113,1,leading/trailing1,1,180,2,5,1,3.4,180,1,3,113,1,IN/OUT1,1,365,2,3,1,4.42,265,0,3,113,1,IN/OUT1,4,390,3,5,1,5.55,390,1,3,113,1,leading/trailing1,2,353,2,5,1,5.38,353,1,3,113,1,IN/OUT1,4,70,2,6,1,3.03,70,1,2,113,1,leading/trailing1,4,10,2,5,1,5.39,10,1,2,113,1,leading/trailing1,2,922,2,6,1,2.86,922,1,3,113,1,IN/OUT1,2,733,2,7,1,4.79,733,1,3,113,1,IN/OUT1,2,88,2,7,1,4.88,88,1,2,113,1,IN/OUT1,3,54,1,7,1,5.1,54,1,3,113,1,leading/trailing0,3,6,1,1,1,4.37,6,1,2,113,1,leading/trailing1,2,310,3,7,1,4.9,310,1,3,113,1,IN/OUT1,4,60,2,5,1,2.81,60,1,2,113,1,leading/trailing1,3,84,1,4,1,11.5,84,1,3,113,2,leading/trailing0,2,36,1,1,1,8.9,36,1,2,113,1,IN/OUT1,3,69,1,5,1,3.04,69,1,3,113,1,leading/trailing1,3,8,1,4,1,2.31,8,1,2,113,1,leading/trailing1,4,440,3,7,1,4.22,440,1,3,113,1,leading/trailing1,1,4,2,6,1,3.04,4,1,2,113,1,IN/OUT0,2,715,2,1,1,3.73,715,1,3,113,1,IN/OUT1,4,50,2,5,1,2.24,0,0,2,113,1,leading/trailing1,1,672,2,3,1,5.08,672,1,3,113,1,IN/OUT1,2,108,1,6,1,4.74,108,1,3,113,1,IN/OUT1,2,5,1,6,1,3.95,5,1,2,113,1,IN/OUT0,1,39,2,2,1,2.26,39,1,2,113,1,IN/OUT0,3,48,1,1,1,3.53,48,1,3,113,1,leading/trailing1,2,911,3,7,1,2.6,911,1,3,113,1,IN/OUT0,2,46,1,1,1,5.89,46,1,2,113,1,IN/OUT1,1,21,1,4,1,1.66,21,1,2,113,1,IN/OUT0,1,228,3,2,1,2.65,228,1,3,113,1,IN/OUT1,2,71,1,6,1,2.25,71,1,2,113,1,IN/OUT0,2,900,2,1,1,2.17,900,1,3,113,1,IN/OUT1,4,80,2,4,1,5.96,80,1,2,113,1,leading/trailing1,4,970,3,6,1,4.99,94,0,3,113,1,leading/trailing1,2,64,1,7,1,3.5,64,1,3,113,1,IN/OUT1,1,288,3,4,1,4.92,288,1,3,113,1,IN/OUT0,1,556,2,2,1,3.47,556,1,3,113,1,IN/OUT1,4,130,3,7,1,7.94,130,1,3,113,1,leading/trailing1,3,9,1,4,1,4.96,9,1,2,113,1,leading/trailing1,2,6,1,6,1,2.89,6,1,2,113,1,IN/OUT1,4,670,3,5,1,7.02,670,1,3,113,1,leading/trailing1,2,6,2,6,1,2.23,6,1,2,113,1,IN/OUT0,4,930,3,1,1,3.7,930,1,3,113,1,leading/trailing0,3,9,1,1,1,2.67,9,1,2,113,1,leading/trailing0,2,701,3,1,1,3.47,701,1,3,113,1,IN/OUT1,4,20,2,5,1,1.62,20,1,2,113,1,leading/trailing1,1,78,2,3,1,1.59,78,1,3,113,1,IN/OUT1,3,2,1,6,1,2.32,2,1,2,113,1,leading/trailing1,2,74,1,7,1,4.6,74,1,2,113,1,IN/OUT0,3,7,1,1,1,3.71,7,1,2,113,1,leading/trailing0,4,80,2,1,1,10,80,1,2,113,1,leading/trailing0,1,83,1,2,1,2.64,83,1,2,113,1,IN/OUT1,4,240,3,5,1,4.33,240,1,3,113,1,leading/trailing1,1,87,2,4,1,3.9,87,1,2,113,1,IN/OUT1,3,77,1,4,1,2.47,77,1,3,113,1,leading/trailing1,4,10,2,6,1,4.59,10,1,2,113,1,leading/trailing1,1,51,2,3,1,6.33,51,1,2,113,1,IN/OUT1,3,3,1,5,1,1.82,3,1,2,113,1,leading/trailing1,1,90,1,5,1,3.41,90,1,2,113,1,IN/OUT1,4,310,3,4,1,4.64,310,1,3,113,1,leading/trailing1,2,72,1,7,1,2.39,72,1,2,113,1,IN/OUT1,2,304,2,5,1,2.84,304,1,3,113,1,IN/OUT1,2,97,2,6,1,2.08,97,1,2,113,1,IN/OUT1,2,19,1,5,1,2.71,19,1,3,113,1,IN/OUT1,1,700,1,4,1,2.41,700,1,3,113,1,IN/OUT1,3,2,1,6,1,4.12,2,1,2,114,1,leading/trailing1,2,809,2,7,1,9.83,809,1,3,114,1,IN/OUT1,3,26,1,4,1,7.23,26,1,3,114,1,leading/trailing1,1,427,3,4,1,6.82,427,1,3,114,1,IN/OUT1,3,59,1,4,1,6.1,59,1,3,114,1,leading/trailing1,1,12,1,3,1,3.24,12,1,2,114,1,IN/OUT1,4,460,3,6,1,7.17,460,1,3,114,1,leading/trailing1,4,50,2,6,0,3.78,50,1,2,114,1,leading/trailing1,2,970,3,7,1,4.83,970,1,3,114,1,IN/OUT1,1,130,2,4,1,8.06,130,1,3,114,1,IN/OUT0,2,91,2,1,1,11.4,91,1,2,114,2,IN/OUT1,3,19,1,6,1,5.63,19,1,3,114,1,leading/trailing1,4,940,3,7,1,8.45,940,1,3,114,1,leading/trailing1,4,10,2,5,1,4.18,10,1,2,114,1,leading/trailing1,4,990,3,4,1,5.13,990,1,3,114,1,leading/trailing1,4,190,3,7,1,9.98,190,1,3,114,1,leading/trailing1,4,170,3,7,1,3.25,170,1,3,114,1,leading/trailing0,2,817,2,1,1,5.54,817,1,3,114,1,IN/OUT1,1,425,1,4,1,3.12,425,1,3,114,1,IN/OUT1,1,77,1,3,1,2.83,77,1,2,114,1,IN/OUT1,3,7,1,5,1,4.07,7,1,2,114,1,leading/trailing0,1,820,1,2,1,4.92,820,1,3,114,1,IN/OUT0,1,7,2,2,1,9,7,1,2,114,1,IN/OUT0,2,358,1,1,1,8.03,358,1,3,114,1,IN/OUT1,1,42,1,4,1,3.16,42,1,2,114,1,IN/OUT1,2,429,2,6,1,8.82,429,1,3,114,1,IN/OUT0,1,60,1,2,1,3.07,60,1,2,114,1,IN/OUT1,3,9,1,4,1,4.38,9,1,2,114,1,leading/trailing1,2,73,1,6,1,9.05,73,1,2,114,1,IN/OUT1,2,702,2,5,1,11.2,702,1,3,114,2,IN/OUT1,4,60,2,5,1,3.44,60,1,2,114,1,leading/trailing1,3,14,1,7,1,4.32,14,1,3,114,1,leading/trailing0,4,70,2,1,1,5.76,70,1,2,114,1,leading/trailing1,1,22,1,3,1,4.99,22,1,2,114,1,IN/OUT0,2,20,1,1,1,4.27,20,1,2,114,1,IN/OUT1,3,6,1,7,1,7.32,6,1,2,114,1,leading/trailing1,3,82,1,4,1,3.95,82,1,3,114,1,leading/trailing1,2,988,3,7,1,5.86,988,1,3,114,1,IN/OUT0,1,87,1,2,1,3.75,87,1,2,114,1,IN/OUT1,2,61,2,6,1,4,61,1,2,114,1,IN/OUT1,1,914,3,5,1,3.73,914,1,3,114,1,IN/OUT1,2,28,2,7,1,7.44,28,1,2,114,1,IN/OUT0,2,43,2,1,1,4.1,43,1,2,114,1,IN/OUT1,1,83,1,4,1,5.13,83,1,2,114,1,IN/OUT1,3,21,1,4,1,7.8,21,1,3,114,1,leading/trailing1,2,848,3,7,1,6.7,848,1,3,114,1,IN/OUT1,2,11,2,6,0,4.51,11,1,2,114,1,IN/OUT1,1,977,3,3,1,8.32,977,1,3,114,1,IN/OUT1,1,32,2,4,1,3.46,32,1,3,114,1,IN/OUT1,3,9,1,6,1,9.76,9,1,2,114,1,leading/trailing0,4,430,3,1,1,10.2,430,1,3,114,1,leading/trailing1,3,4,1,5,1,6.8,4,1,2,114,1,leading/trailing1,1,72,2,4,1,7.76,72,1,2,114,1,IN/OUT1,2,826,3,5,1,5.55,826,1,3,114,1,IN/OUT1,3,76,1,6,1,7.45,76,1,3,114,1,leading/trailing1,1,247,3,3,1,13.5,247,1,3,114,2,IN/OUT1,1,893,1,5,1,7.01,893,1,3,114,1,IN/OUT0,4,20,2,1,1,3.38,20,1,2,114,1,leading/trailing1,4,850,3,7,1,5.67,850,1,3,114,1,leading/trailing0,4,610,3,1,1,5.72,610,1,3,114,1,leading/trailing1,3,5,1,7,1,10.9,5,1,2,114,1,leading/trailing1,2,33,1,7,1,3.15,33,1,2,114,1,IN/OUT0,1,70,2,2,1,6.89,70,1,3,114,1,IN/OUT0,2,32,1,1,1,5.33,32,1,2,114,1,IN/OUT1,4,30,2,6,1,6.55,30,1,2,114,1,leading/trailing1,1,68,2,5,1,4.73,68,1,2,114,1,IN/OUT0,3,45,1,1,1,12.1,45,1,3,114,2,leading/trailing1,3,7,1,5,1,3.86,7,1,2,114,1,leading/trailing1,4,530,3,4,0,18.1,530,1,3,114,2,leading/trailing1,4,10,2,6,1,2.55,10,1,2,114,1,leading/trailing1,2,11,1,5,1,4.66,11,1,2,114,1,IN/OUT1,4,40,2,6,1,3.43,40,1,2,114,1,leading/trailing1,2,873,2,7,1,11.5,873,1,3,114,2,IN/OUT0,3,92,1,1,1,4.49,92,1,3,114,1,leading/trailing1,4,110,3,6,1,3.85,11,0,3,114,1,leading/trailing1,3,5,1,4,1,6.54,5,1,2,114,1,leading/trailing0,3,47,1,1,1,4.46,47,1,3,114,1,leading/trailing0,1,745,3,2,1,13.1,745,1,3,114,2,IN/OUT1,4,170,3,4,1,3.17,170,1,3,114,1,leading/trailing1,1,96,1,4,1,5.21,96,1,2,114,1,IN/OUT0,2,720,2,1,1,5.63,720,1,3,114,1,IN/OUT0,3,6,1,1,1,8.68,6,1,2,114,1,leading/trailing1,1,69,3,6,1,10.9,69,1,3,114,1,IN/OUT1,3,38,1,5,1,8.6,39,0,3,114,1,leading/trailing1,3,9,1,5,1,6.09,9,1,2,114,1,leading/trailing1,2,913,2,5,1,5.03,913,1,3,114,1,IN/OUT1,2,7,1,7,1,4.25,7,1,2,114,1,IN/OUT0,4,250,3,1,1,6.24,250,1,3,114,1,leading/trailing1,3,92,1,6,1,7.16,92,1,3,114,1,leading/trailing1,2,235,1,6,1,2.61,235,1,3,114,1,IN/OUT1,4,660,3,7,1,6.96,660,1,3,114,1,leading/trailing0,3,2,1,1,1,3.41,2,1,2,114,1,leading/trailing1,4,640,3,7,1,7.7,640,1,3,114,1,leading/trailing1,3,1,1,4,1,4.43,1,1,2,114,1,leading/trailing1,3,95,1,7,1,3.87,95,1,3,114,1,leading/trailing0,3,47,1,1,1,8.44,47,1,3,114,1,leading/trailing1,2,411,2,5,1,5.55,411,1,3,114,1,IN/OUT1,2,47,2,7,1,4.14,47,1,2,114,1,IN/OUT1,1,807,3,4,0,3.86,807,1,3,114,1,IN/OUT1,3,18,1,4,1,6.28,18,1,3,114,1,leading/trailing1,4,980,3,4,1,5.02,980,1,3,114,1,leading/trailing1,3,31,1,6,1,3.57,31,1,3,114,1,leading/trailing1,4,90,2,7,1,4.72,90,1,2,114,1,leading/trailing1,2,57,2,7,1,6.98,57,1,2,114,1,IN/OUT1,4,30,2,5,1,3.09,30,1,2,114,1,leading/trailing1,1,884,1,4,1,6.2,884,1,3,114,1,IN/OUT1,1,93,3,3,1,4.25,93,1,3,114,1,IN/OUT0,4,40,2,1,1,4.62,40,1,2,114,1,leading/trailing1,2,21,1,6,1,3.3,21,1,2,114,1,IN/OUT1,4,70,2,5,1,2.05,70,1,2,114,1,leading/trailing0,1,90,1,2,1,10.4,90,1,2,114,1,IN/OUT1,1,43,2,4,1,4.78,43,1,2,114,1,IN/OUT1,4,30,2,4,1,3.74,30,1,2,114,1,leading/trailing1,2,766,3,6,1,8.63,766,1,3,114,1,IN/OUT0,1,360,2,2,1,5.68,360,1,3,114,1,IN/OUT0,2,202,1,1,1,3.51,202,1,3,114,1,IN/OUT0,4,710,3,1,1,7.18,710,1,3,114,1,leading/trailing0,4,50,2,1,1,3.73,50,1,2,114,1,leading/trailing1,3,9,1,5,1,3.49,9,1,2,114,1,leading/trailing0,3,6,1,1,1,4.49,6,1,2,114,1,leading/trailing1,1,17,2,4,1,2.58,17,1,2,114,1,IN/OUT1,1,20,1,4,1,1.83,20,1,2,114,1,IN/OUT1,4,20,2,5,1,2.77,20,1,2,114,1,leading/trailing1,1,67,2,4,1,1.86,67,1,2,114,1,IN/OUT0,3,7,1,1,1,4.2,7,1,2,114,1,leading/trailing1,4,30,2,7,0,2.37,30,1,2,114,1,leading/trailing1,2,89,1,7,1,4.58,89,1,2,114,1,IN/OUT1,2,17,1,5,1,2.22,17,1,2,114,1,IN/OUT1,1,57,2,3,1,3.43,57,1,0,115,1,IN/OUT1,3,3,1,6,1,5.13,3,1,0,115,1,leading/trailing1,1,28,1,3,1,2.54,28,1,0,115,1,IN/OUT1,2,40,2,7,1,3.86,40,1,0,115,1,IN/OUT0,1,52,1,2,1,3.77,52,1,0,115,1,IN/OUT1,4,90,2,4,1,2.37,90,1,0,115,1,leading/trailing1,3,1,1,6,1,2.94,1,1,0,115,1,leading/trailing1,1,72,2,3,1,2.79,72,1,0,115,1,IN/OUT1,3,2,1,5,1,3.15,2,1,0,115,1,leading/trailing1,3,5,1,6,1,3.08,5,1,0,115,1,leading/trailing1,4,20,2,4,1,3.85,20,1,0,115,1,leading/trailing1,1,61,1,3,1,1.94,61,1,0,115,1,IN/OUT1,3,2,1,4,1,2.18,2,1,0,115,1,leading/trailing1,2,72,2,6,1,3.28,72,1,0,115,1,IN/OUT1,3,6,1,5,1,2.08,6,1,0,115,1,leading/trailing1,3,1,1,7,1,5.37,1,1,0,115,1,leading/trailing0,3,6,1,1,1,3.02,6,1,0,115,1,leading/trailing1,2,22,2,6,1,3.15,22,1,0,115,1,IN/OUT1,2,60,1,6,1,3.64,60,1,0,115,1,IN/OUT1,3,2,1,6,1,2.84,2,1,0,115,1,leading/trailing1,2,76,1,6,1,2.32,76,1,0,115,1,IN/OUT1,3,2,1,7,1,5.61,2,1,0,115,1,leading/trailing1,3,4,1,5,1,2.59,4,1,0,115,1,leading/trailing1,2,46,2,6,1,3.72,46,1,0,115,1,IN/OUT1,2,36,2,5,1,4.16,36,1,0,115,1,IN/OUT1,1,98,1,6,1,3.01,98,1,0,115,1,IN/OUT0,3,9,1,1,1,3.69,9,1,0,115,1,leading/trailing1,3,2,1,7,1,2.18,2,1,0,115,1,leading/trailing1,4,30,2,5,1,3.28,30,1,0,115,1,leading/trailing1,2,35,2,7,1,2.4,35,1,0,115,1,IN/OUT0,2,43,2,1,1,3.12,43,1,0,115,1,IN/OUT1,2,98,2,7,1,2.24,98,1,0,115,1,IN/OUT1,4,70,2,5,1,4.02,70,1,0,115,1,leading/trailing1,1,86,1,5,1,1.75,86,1,0,115,1,IN/OUT1,3,1,1,5,1,3.04,1,1,0,115,1,leading/trailing1,1,41,2,3,1,1.82,41,1,0,115,1,IN/OUT0,4,70,2,1,1,2.44,70,1,0,115,1,leading/trailing1,2,46,2,6,1,2.09,46,1,0,115,1,IN/OUT1,4,50,2,6,1,3.28,50,1,0,115,1,leading/trailing1,4,90,2,4,1,2.06,95,0,0,115,1,leading/trailing0,4,50,2,1,1,4.59,50,1,0,115,1,leading/trailing0,4,80,2,1,1,3.76,80,1,0,115,1,leading/trailing0,2,73,2,1,1,3.64,73,1,0,115,1,IN/OUT1,1,49,1,3,1,2.77,49,1,0,115,1,IN/OUT0,4,20,2,1,1,3.07,20,1,0,115,1,leading/trailing1,1,12,2,3,1,1.84,2,0,0,115,1,IN/OUT1,4,10,2,6,1,2.68,10,1,0,115,1,leading/trailing1,4,10,2,4,1,3.65,10,1,0,115,1,leading/trailing1,3,1,1,6,1,2.05,1,1,0,115,1,leading/trailing1,4,10,2,7,1,2.63,10,1,0,115,1,leading/trailing1,3,8,1,5,1,2.6,8,1,0,115,1,leading/trailing0,1,56,2,2,1,1.71,56,1,0,115,1,IN/OUT0,3,6,1,1,1,3.32,6,1,0,115,1,leading/trailing1,2,17,2,6,1,3.57,17,1,0,115,1,IN/OUT1,2,18,1,5,1,2.26,18,1,0,115,1,IN/OUT1,4,20,2,7,1,1.93,20,1,0,115,1,leading/trailing1,3,2,1,4,1,2.78,20,0,0,115,1,leading/trailing0,3,2,1,1,1,3.5,2,1,0,115,1,leading/trailing1,1,2,2,4,1,1.87,2,1,0,115,1,IN/OUT0,3,6,1,1,1,3.77,6,1,0,115,1,leading/trailing1,3,3,1,5,1,2.73,3,1,0,115,1,leading/trailing1,2,22,1,7,1,2.05,22,1,0,115,1,IN/OUT0,1,51,1,2,1,2.41,51,1,0,115,1,IN/OUT0,1,75,2,2,1,1.54,75,1,0,115,1,IN/OUT1,3,6,1,6,1,1.64,6,1,0,115,1,leading/trailing1,4,90,2,5,1,2.61,90,1,0,115,1,leading/trailing0,4,80,2,1,1,2.73,80,1,0,115,1,leading/trailing1,3,7,1,6,1,2.61,7,1,0,115,1,leading/trailing1,3,1,1,4,1,2.25,1,1,0,115,1,leading/trailing1,2,8,1,4,1,5.01,8,1,0,115,1,IN/OUT1,1,72,1,3,1,2.66,72,1,0,115,1,IN/OUT1,1,64,2,5,1,3.86,64,1,0,115,1,IN/OUT1,1,19,2,4,1,2.32,19,1,0,115,1,IN/OUT1,3,4,1,6,1,2.52,4,1,0,115,1,leading/trailing0,4,90,2,1,1,3.36,90,1,0,115,1,leading/trailing0,2,16,1,1,1,3.17,16,1,0,115,1,IN/OUT1,4,80,2,5,1,2.83,80,1,0,115,1,leading/trailing1,4,30,2,7,1,2.09,30,1,0,115,1,leading/trailing0,2,93,2,1,1,3.01,93,1,0,115,1,IN/OUT0,3,1,1,1,1,2.81,1,1,0,115,1,leading/trailing1,2,27,1,6,1,5.19,27,1,0,115,1,IN/OUT1,4,60,2,6,1,2.12,60,1,0,115,1,leading/trailing1,1,36,2,3,1,1.62,36,1,0,115,1,IN/OUT1,2,58,1,4,0,2.72,58,1,0,115,1,IN/OUT0,2,54,2,1,1,3.05,54,1,0,115,1,IN/OUT0,2,38,1,1,1,2.19,38,1,0,115,1,IN/OUT1,1,88,1,3,1,1.62,88,1,0,115,1,IN/OUT1,4,20,2,4,1,1.63,20,1,0,115,1,leading/trailing1,2,96,2,6,1,2.15,96,1,0,115,1,IN/OUT1,4,20,2,4,1,1.62,20,1,0,115,1,leading/trailing0,1,6,2,2,1,1.69,6,1,0,115,1,IN/OUT1,1,36,1,4,1,1.52,36,1,0,115,1,IN/OUT0,4,20,2,1,1,1.78,20,1,0,115,1,leading/trailing1,3,2,1,6,1,3.49,2,1,0,115,1,leading/trailing1,1,84,1,4,1,1.56,84,1,0,115,1,IN/OUT0,1,16,2,2,1,1.58,16,1,0,115,1,IN/OUT1,1,40,1,4,1,1.82,40,1,0,115,1,IN/OUT1,1,14,2,6,1,2.07,14,1,0,115,1,IN/OUT1,2,79,1,6,1,3.19,79,1,0,115,1,IN/OUT1,4,60,2,6,1,2.65,60,1,0,115,1,leading/trailing1,4,20,2,7,1,2.41,20,1,0,115,1,leading/trailing1,4,70,2,6,1,4,70,1,0,115,1,leading/trailing1,2,76,1,6,1,2.49,76,1,0,115,1,IN/OUT1,2,96,2,5,1,1.86,96,1,0,115,1,IN/OUT0,1,5,2,2,1,2.79,5,1,0,115,1,IN/OUT1,1,18,1,3,1,4.69,18,1,0,115,1,IN/OUT0,3,3,1,1,1,3.85,3,1,0,115,1,leading/trailing1,2,91,2,5,1,2,91,1,0,115,1,IN/OUT1,4,90,2,4,1,2.3,90,1,0,115,1,leading/trailing1,2,18,2,7,1,2.19,18,1,0,115,1,IN/OUT1,3,7,1,6,1,4.23,7,1,0,115,1,leading/trailing1,4,90,2,4,1,2.49,90,1,0,115,1,leading/trailing1,4,30,2,5,1,2.8,30,1,0,115,1,leading/trailing1,2,39,1,7,1,2.29,39,1,0,115,1,IN/OUT0,2,9,1,1,1,3.07,9,1,0,115,1,IN/OUT0,4,50,2,1,1,1.71,50,1,0,115,1,leading/trailing1,1,24,2,5,1,1.49,24,1,0,115,1,IN/OUT1,3,3,1,4,1,2.02,3,1,0,115,1,leading/trailing0,3,7,1,1,1,2.32,7,1,0,115,1,leading/trailing1,3,7,1,5,1,2.62,7,1,0,115,1,leading/trailing1,4,30,2,4,1,2.74,30,1,0,115,1,leading/trailing0,1,87,2,2,1,2.22,87,1,0,115,1,IN/OUT1,2,22,2,6,1,1.67,22,1,0,115,1,IN/OUT0,2,47,1,1,1,2.53,47,1,0,115,1,IN/OUT1,4,80,2,4,1,1.58,80,1,0,115,1,leading/trailing1,1,63,2,3,1,1.81,63,1,0,115,1,IN/OUT1,1,48,2,3,1,1.32,48,1,0,115,1,IN/OUT1,1,99,1,4,1,1.83,99,1,0,115,1,IN/OUT1,4,20,2,4,1,2.42,20,1,0,116,1,leading/trailing1,1,23,1,3,1,2.4,23,1,0,116,1,IN/OUT1,2,62,2,7,1,3.25,62,1,0,116,1,IN/OUT1,4,20,2,6,1,2.31,20,1,0,116,1,leading/trailing0,3,7,1,1,1,4.23,7,1,0,116,1,leading/trailing0,1,48,2,2,1,4.41,48,1,0,116,1,IN/OUT0,2,38,1,1,1,4.28,38,1,0,116,1,IN/OUT1,3,5,1,5,1,3.26,5,1,0,116,1,leading/trailing1,1,87,1,4,1,2.67,87,1,0,116,1,IN/OUT1,2,93,2,7,1,3.6,93,1,0,116,1,IN/OUT1,3,9,1,6,1,2.73,9,1,0,116,1,leading/trailing1,1,61,2,3,1,2.25,61,1,0,116,1,IN/OUT0,3,6,1,1,1,3.2,6,1,0,116,1,leading/trailing1,1,7,2,3,1,2.43,7,1,0,116,1,IN/OUT1,4,20,2,4,1,2.3,20,1,0,116,1,leading/trailing1,4,40,2,5,1,2.35,40,1,0,116,1,leading/trailing1,4,90,2,7,1,3.71,90,1,0,116,1,leading/trailing0,2,80,2,1,1,3.73,80,1,0,116,1,IN/OUT0,1,79,2,2,1,3.39,79,1,0,116,1,IN/OUT1,2,72,2,7,1,2.44,72,1,0,116,1,IN/OUT1,4,50,2,6,1,2.75,50,1,0,116,1,leading/trailing0,4,60,2,1,1,2.82,60,1,0,116,1,leading/trailing0,2,5,1,1,1,3.13,5,1,0,116,1,IN/OUT0,4,70,2,1,1,6.65,70,1,0,116,1,leading/trailing1,1,93,1,3,1,2.36,93,1,0,116,1,IN/OUT1,3,4,1,4,1,3.62,4,1,0,116,1,leading/trailing1,1,48,2,4,1,2.5,48,1,0,116,1,IN/OUT0,1,16,2,2,1,3.12,16,1,0,116,1,IN/OUT1,1,79,2,6,1,2.54,79,1,0,116,1,IN/OUT1,1,82,2,3,1,3.21,82,1,0,116,1,IN/OUT1,2,30,2,6,1,2.94,30,1,0,116,1,IN/OUT1,3,2,1,4,1,3.58,2,1,0,116,1,leading/trailing0,2,71,2,1,1,3.69,71,1,0,116,1,IN/OUT0,4,60,2,1,1,3.11,60,1,0,116,1,leading/trailing1,3,4,1,6,1,2.85,4,1,0,116,1,leading/trailing1,1,62,1,3,1,2.29,62,1,0,116,1,IN/OUT1,3,4,1,5,1,3.49,4,1,0,116,1,leading/trailing1,3,6,1,5,1,2.83,6,1,0,116,1,leading/trailing1,2,41,2,5,1,2.2,41,1,0,116,1,IN/OUT1,1,11,2,3,1,2.5,11,1,0,116,1,IN/OUT1,3,5,1,5,1,2.85,5,1,0,116,1,leading/trailing1,4,50,2,4,1,2.05,50,1,0,116,1,leading/trailing0,1,81,1,2,1,2.76,81,1,0,116,1,IN/OUT1,2,2,1,5,1,3.89,2,1,0,116,1,IN/OUT1,3,8,1,7,1,3.36,8,1,0,116,1,leading/trailing0,1,69,1,2,1,3.26,69,1,0,116,1,IN/OUT0,4,70,2,1,1,3.93,70,1,0,116,1,leading/trailing0,3,5,1,1,1,3.12,5,1,0,116,1,leading/trailing1,4,10,2,7,1,2.06,10,1,0,116,1,leading/trailing0,2,71,2,1,1,2.67,71,1,0,116,1,IN/OUT1,2,81,2,5,1,2.29,81,1,0,116,1,IN/OUT0,2,24,2,1,1,2.34,24,1,0,116,1,IN/OUT1,4,30,2,4,1,2,30,1,0,116,1,leading/trailing1,1,43,1,6,1,1.79,43,1,0,116,1,IN/OUT1,4,40,2,6,1,2.51,40,1,0,116,1,leading/trailing1,4,30,2,5,1,1.46,30,1,0,116,1,leading/trailing1,1,39,1,3,1,1.74,39,1,0,116,1,IN/OUT1,2,31,2,6,1,1.65,31,1,0,116,1,IN/OUT1,2,18,1,7,1,2.21,18,1,0,116,1,IN/OUT1,1,92,2,3,1,1.93,92,1,0,116,1,IN/OUT1,4,60,2,6,1,2.99,60,1,0,116,1,leading/trailing1,4,90,2,5,1,1.78,90,1,0,116,1,leading/trailing0,3,6,1,1,1,4.11,6,1,0,116,1,leading/trailing0,1,49,2,2,1,1.72,49,1,0,116,1,IN/OUT1,1,63,2,5,1,2.73,63,1,0,116,1,IN/OUT1,2,52,1,4,1,1.93,52,1,0,116,1,IN/OUT1,1,81,1,3,1,2.19,81,1,0,116,1,IN/OUT1,2,8,1,5,1,2.82,8,1,0,116,1,IN/OUT0,3,6,1,1,1,3.22,6,1,0,116,1,leading/trailing1,4,30,2,6,1,2.17,30,1,0,116,1,leading/trailing0,4,80,2,1,1,2.21,80,1,0,116,1,leading/trailing1,1,16,2,3,1,1.45,16,1,0,116,1,IN/OUT1,2,66,1,7,1,2.08,66,1,0,116,1,IN/OUT1,1,20,1,4,1,1.52,20,1,0,116,1,IN/OUT1,3,2,1,5,1,1.86,2,1,0,116,1,leading/trailing0,3,8,1,1,1,2.47,8,1,0,116,1,leading/trailing1,3,1,1,5,1,2.5,1,1,0,116,1,leading/trailing1,3,4,1,4,1,1.89,4,1,0,116,1,leading/trailing1,4,80,2,7,1,2.33,80,1,0,116,1,leading/trailing1,1,16,2,3,1,2.71,16,1,0,116,1,IN/OUT1,4,20,2,6,1,1.76,20,1,0,116,1,leading/trailing1,4,50,2,6,1,1.99,50,1,0,116,1,leading/trailing1,4,80,2,4,1,1.84,80,1,0,116,1,leading/trailing1,3,5,1,5,1,2.1,5,1,0,116,1,leading/trailing1,1,66,1,3,1,1.89,66,1,0,116,1,IN/OUT1,3,7,1,6,1,3.11,7,1,0,116,1,leading/trailing1,4,50,2,4,1,2.74,50,1,0,116,1,leading/trailing0,1,77,2,2,1,2.41,77,1,0,116,1,IN/OUT1,2,91,2,5,1,1.89,91,1,0,116,1,IN/OUT1,3,8,1,6,1,2.69,8,1,0,116,1,leading/trailing1,4,90,2,5,1,1.81,90,1,0,116,1,leading/trailing1,2,93,2,7,1,3.28,93,1,0,116,1,IN/OUT1,2,23,2,7,1,2.38,23,1,0,116,1,IN/OUT1,3,5,1,7,1,2.16,5,1,0,116,1,leading/trailing1,3,1,1,5,1,2.5,1,1,0,116,1,leading/trailing0,1,70,1,2,1,2.93,70,1,0,116,1,IN/OUT1,2,76,1,6,1,3.05,76,1,0,116,1,IN/OUT1,2,41,2,5,1,1.78,41,1,0,116,1,IN/OUT1,2,7,2,6,1,2.02,7,1,0,116,1,IN/OUT1,2,65,2,7,1,2.05,65,1,0,116,1,IN/OUT1,1,69,2,5,1,1.75,69,1,0,116,1,IN/OUT1,3,8,1,4,1,2.47,8,1,0,116,1,leading/trailing1,2,15,2,4,1,2.01,15,1,0,116,1,IN/OUT1,2,30,2,6,1,2.28,30,1,0,116,1,IN/OUT1,2,71,1,6,1,5.1,71,1,0,116,1,IN/OUT1,3,6,1,6,1,2.78,6,1,0,116,1,leading/trailing1,3,9,1,6,1,6.71,9,1,0,116,1,leading/trailing0,3,8,1,1,1,3.83,8,1,0,116,1,leading/trailing1,1,79,2,3,1,6.19,79,1,0,116,1,IN/OUT0,3,5,1,1,1,2.85,5,1,0,116,1,leading/trailing1,1,29,2,5,1,2.68,29,1,0,116,1,IN/OUT0,4,50,2,1,1,2.53,50,1,0,116,1,leading/trailing1,4,20,2,7,1,2.96,20,1,0,116,1,leading/trailing0,2,54,2,1,1,2.68,54,1,0,116,1,IN/OUT0,4,80,2,1,1,6.4,80,1,0,116,1,leading/trailing1,2,77,2,6,1,2.42,77,1,0,116,1,IN/OUT1,3,9,1,4,1,2.12,9,1,0,116,1,leading/trailing0,4,50,2,1,1,1.95,50,1,0,116,1,leading/trailing1,3,1,1,6,1,2.22,1,1,0,116,1,leading/trailing1,4,10,2,6,1,3.12,10,1,0,116,1,leading/trailing1,3,1,1,6,1,2.37,1,1,0,116,1,leading/trailing1,2,77,2,6,1,2.13,77,1,0,116,1,IN/OUT0,2,50,2,1,1,3.26,50,1,0,116,1,IN/OUT1,4,40,2,4,1,1.66,40,1,0,116,1,leading/trailing1,1,93,2,3,1,2.13,93,1,0,116,1,IN/OUT1,4,90,2,7,1,2.07,90,1,0,116,1,leading/trailing1,3,2,1,7,1,1.79,2,1,0,116,1,leading/trailing1,1,87,1,5,1,2.05,87,1,0,116,1,IN/OUT1,3,87,1,5,1,2.43,87,1,3,117,1,leading/trailing1,3,33,1,7,1,2.82,33,1,3,117,1,leading/trailing0,2,682,3,1,1,2.47,682,1,3,117,1,IN/OUT1,2,30,2,6,1,2.35,30,1,2,117,1,IN/OUT1,2,71,2,7,1,3.9,71,1,2,117,1,IN/OUT1,4,60,2,5,1,2.56,60,1,2,117,1,leading/trailing1,3,8,1,5,1,1.84,8,1,2,117,1,leading/trailing1,3,4,1,5,1,4.77,4,1,2,117,1,leading/trailing1,1,59,2,6,1,1.4,59,1,2,117,1,IN/OUT1,4,160,3,6,1,1.79,160,1,3,117,1,leading/trailing0,1,76,2,2,1,1.46,76,1,2,117,1,IN/OUT1,1,74,1,4,1,1.69,74,1,2,117,1,IN/OUT1,3,3,1,4,1,1.54,3,1,2,117,1,leading/trailing0,4,960,3,1,1,2.13,965,0,3,117,1,leading/trailing0,1,869,2,2,1,5.82,869,1,3,117,1,IN/OUT1,2,47,2,6,1,1.83,47,1,2,117,1,IN/OUT1,2,920,3,6,1,4.08,920,1,3,117,1,IN/OUT1,4,160,3,6,1,2.1,160,1,3,117,1,leading/trailing1,4,270,3,5,1,3.28,270,1,3,117,1,leading/trailing1,3,3,1,4,1,1.69,3,1,2,117,1,leading/trailing1,1,45,1,3,1,2.66,45,1,2,117,1,IN/OUT1,1,748,2,3,1,2.04,748,1,3,117,1,IN/OUT1,3,98,1,7,1,5.4,98,1,3,117,1,leading/trailing0,4,130,3,1,1,3.93,13,0,3,117,1,leading/trailing0,2,422,2,1,1,3.79,422,1,3,117,1,IN/OUT1,1,33,1,5,1,1.57,33,1,2,117,1,IN/OUT0,1,501,1,2,1,2.21,501,1,3,117,1,IN/OUT1,2,971,3,5,1,1.98,971,1,3,117,1,IN/OUT1,1,442,2,3,1,1.5,442,1,3,117,1,IN/OUT0,4,60,2,1,1,2.2,60,1,2,117,1,leading/trailing1,2,987,3,6,1,3.72,987,1,3,117,1,IN/OUT1,3,1,1,4,1,1.75,1,1,2,117,1,leading/trailing0,2,11,1,1,1,2.36,11,1,2,117,1,IN/OUT1,3,4,1,4,1,1.3,4,1,2,117,1,leading/trailing1,4,490,3,6,1,4.41,490,1,3,117,1,leading/trailing1,4,910,3,7,1,3.41,910,1,3,117,1,leading/trailing1,1,89,1,4,1,1.9,89,1,2,117,1,IN/OUT0,2,7,1,1,1,2.73,7,1,2,117,1,IN/OUT1,1,78,1,4,1,1.76,78,1,2,117,1,IN/OUT1,3,6,1,5,1,2.4,6,1,2,117,1,leading/trailing1,3,9,1,4,1,1.46,48,0,2,117,1,leading/trailing1,3,47,1,7,1,6.82,47,1,3,117,1,leading/trailing1,1,284,1,3,1,2.18,284,1,3,117,1,IN/OUT0,1,78,2,2,1,2.61,78,1,2,117,1,IN/OUT0,1,946,3,2,1,1.3,946,1,3,117,1,IN/OUT1,4,80,2,7,1,3.79,80,1,2,117,1,leading/trailing1,1,645,2,5,1,3.41,645,1,3,117,1,IN/OUT1,2,48,2,7,1,2.21,48,1,2,117,1,IN/OUT0,3,28,1,1,1,2.54,28,1,3,117,1,leading/trailing1,4,310,3,6,1,1.98,310,1,3,117,1,leading/trailing1,2,589,1,7,1,4.34,589,1,3,117,1,IN/OUT1,1,98,2,4,1,1.5,98,1,2,117,1,IN/OUT0,3,2,1,1,1,17.6,2,1,2,117,2,leading/trailing0,2,154,1,1,1,7.02,78,0,3,117,1,IN/OUT1,4,10,2,6,1,2.75,10,1,2,117,1,leading/trailing1,2,714,2,5,0,2.34,714,1,3,117,1,IN/OUT1,2,83,1,7,1,4.85,83,1,2,117,1,IN/OUT1,2,76,2,5,0,1.79,76,1,2,117,1,IN/OUT1,1,483,2,3,1,1.77,483,1,3,117,1,IN/OUT1,4,80,2,6,1,2.27,80,1,2,117,1,leading/trailing1,4,80,2,5,1,1.84,80,1,2,117,1,leading/trailing1,3,52,1,6,0,1.74,552,0,3,117,1,leading/trailing1,1,54,2,6,1,2.95,54,1,2,117,1,IN/OUT1,2,242,1,7,1,2.89,242,1,3,117,1,IN/OUT1,2,3,2,7,1,1.85,3,1,2,117,1,IN/OUT0,2,963,3,1,1,3.18,963,1,3,117,1,IN/OUT1,4,690,3,5,1,1.83,695,0,3,117,1,leading/trailing1,3,1,1,6,1,4.15,4,0,2,117,1,leading/trailing0,3,9,1,1,1,3.6,9,1,2,117,1,leading/trailing0,4,840,3,1,1,1.43,840,1,3,117,1,leading/trailing0,3,51,1,1,1,2.34,51,1,3,117,1,leading/trailing1,3,5,1,5,1,2.03,5,1,2,117,1,leading/trailing0,4,40,2,1,1,2.57,40,1,2,117,1,leading/trailing1,2,266,1,7,1,2.91,266,1,3,117,1,IN/OUT1,1,119,3,4,1,1.94,118,0,3,117,1,IN/OUT1,2,79,1,6,1,2.79,79,1,2,117,1,IN/OUT1,2,12,1,6,1,2.82,12,1,2,117,1,IN/OUT1,1,36,1,5,1,1.62,36,1,2,117,1,IN/OUT1,1,68,2,5,1,2.83,68,1,2,117,1,IN/OUT1,3,95,1,7,1,1.87,95,1,3,117,1,leading/trailing1,4,40,2,4,1,1.3,40,1,2,117,1,leading/trailing0,3,1,1,1,1,3.45,1,1,2,117,1,leading/trailing1,1,382,2,5,1,6.01,382,1,3,117,1,IN/OUT1,1,223,1,4,1,2.15,223,1,3,117,1,IN/OUT1,2,991,3,5,1,1.57,991,1,3,117,1,IN/OUT0,3,7,1,1,1,2.37,7,1,2,117,1,leading/trailing1,4,530,3,4,1,1.26,530,1,3,117,1,leading/trailing1,2,17,1,7,1,2.93,17,1,2,117,1,IN/OUT0,2,43,1,1,1,2.52,43,1,2,117,1,IN/OUT1,3,47,1,6,1,1.63,486,0,3,117,1,leading/trailing1,1,935,1,4,1,1.77,935,1,3,117,1,IN/OUT1,1,201,1,4,1,1.85,476,0,3,117,1,IN/OUT1,2,524,1,5,1,3.45,524,1,3,117,1,IN/OUT1,4,10,2,4,1,1.44,10,1,2,117,1,leading/trailing1,1,6,2,3,1,1.25,6,1,2,117,1,IN/OUT0,1,68,2,2,1,3.1,68,1,2,117,1,IN/OUT1,4,170,3,5,1,2.09,170,1,3,117,1,leading/trailing1,2,439,2,7,1,2.24,439,1,3,117,1,IN/OUT1,1,964,3,3,1,1.73,960,0,3,117,1,IN/OUT1,3,79,1,6,1,3.71,790,0,3,117,1,leading/trailing1,2,659,2,7,1,12.9,659,1,3,117,2,IN/OUT1,3,29,1,5,1,2.03,29,1,3,117,1,leading/trailing1,4,80,2,4,1,1.77,85,0,2,117,1,leading/trailing1,4,90,2,6,1,2.32,90,1,2,117,1,leading/trailing1,3,35,1,5,1,4.25,35,1,3,117,1,leading/trailing0,3,66,1,1,1,2.13,66,1,3,117,1,leading/trailing1,3,48,1,7,1,1.98,48,1,3,117,1,leading/trailing1,1,73,2,3,1,1.68,73,1,2,117,1,IN/OUT0,2,36,1,1,1,3.97,36,1,2,117,1,IN/OUT1,4,30,2,6,1,1.87,30,1,2,117,1,leading/trailing0,4,50,2,1,1,2.25,50,1,2,117,1,leading/trailing1,4,10,2,6,1,1.93,10,1,2,117,1,leading/trailing1,3,11,1,6,1,1.84,11,1,3,117,1,leading/trailing1,2,240,3,4,1,1.73,240,1,3,117,1,IN/OUT1,3,2,1,5,1,1.6,2,1,2,117,1,leading/trailing1,2,56,1,7,1,2.04,56,1,2,117,1,IN/OUT1,4,90,2,6,1,1.28,90,1,2,117,1,leading/trailing0,4,590,3,1,1,2.21,590,1,3,117,1,leading/trailing1,1,820,2,3,1,2.65,820,1,3,117,1,IN/OUT1,4,990,3,7,1,1.89,990,1,3,117,1,leading/trailing1,3,9,1,5,1,3.79,9,1,2,117,1,leading/trailing1,2,65,2,6,1,2.54,5,0,2,117,1,IN/OUT0,4,60,2,1,1,2.8,60,1,2,117,1,leading/trailing0,1,19,3,2,1,3.56,19,1,3,117,1,IN/OUT1,4,890,3,5,1,3.09,890,1,3,117,1,leading/trailing1,4,820,3,4,1,1.31,820,1,3,117,1,leading/trailing0,1,81,1,2,1,2.04,81,1,2,117,1,IN/OUT0,3,51,1,1,1,3.18,51,1,3,117,1,leading/trailing1,4,620,3,5,1,3.51,620,1,3,118,1,leading/trailing1,2,146,1,5,1,4.24,146,1,3,118,1,IN/OUT1,1,83,2,4,1,2.78,83,1,2,118,1,IN/OUT1,4,90,2,5,1,4.23,90,1,2,118,1,leading/trailing1,4,10,2,7,1,2.08,10,1,2,118,1,leading/trailing0,3,9,1,1,1,3.99,9,1,2,118,1,leading/trailing1,3,3,1,7,1,2.89,3,1,2,118,1,leading/trailing1,2,217,2,5,1,3.21,217,1,3,118,1,IN/OUT1,2,153,2,4,1,3.09,153,1,3,118,1,IN/OUT1,2,805,2,5,1,3.15,805,1,3,118,1,IN/OUT1,3,4,1,6,1,5.57,4,1,2,118,1,leading/trailing1,3,4,1,4,1,2.1,4,1,2,118,1,leading/trailing1,1,322,2,4,1,2.04,322,1,3,118,1,IN/OUT1,3,3,1,5,1,4.31,3,1,2,118,1,leading/trailing1,3,79,1,4,1,8.18,79,1,3,118,1,leading/trailing0,3,65,1,1,1,4.5,65,1,3,118,1,leading/trailing1,3,6,1,5,1,2.58,6,1,2,118,1,leading/trailing1,2,8,1,6,1,2.45,8,1,2,118,1,IN/OUT1,1,48,1,3,1,2.18,48,1,2,118,1,IN/OUT1,2,236,3,6,1,2.59,236,1,3,118,1,IN/OUT1,2,732,1,7,1,4.49,732,1,3,118,1,IN/OUT0,4,80,2,1,1,7.78,80,1,2,118,1,leading/trailing1,1,127,3,4,1,3.43,127,1,3,118,1,IN/OUT1,2,310,3,5,1,2.14,310,1,3,118,1,IN/OUT0,3,2,1,1,1,1.84,2,1,2,118,1,leading/trailing0,1,398,3,2,1,2.44,398,1,3,118,1,IN/OUT1,2,66,1,6,1,2.36,66,1,2,118,1,IN/OUT1,4,50,2,6,1,2.75,50,1,2,118,1,leading/trailing1,1,612,1,3,1,2.28,612,1,3,118,1,IN/OUT0,3,34,1,1,1,2.42,34,1,3,118,1,leading/trailing1,1,24,1,4,1,5.79,24,1,2,118,1,IN/OUT0,2,44,1,1,1,2.5,0,0,2,118,1,IN/OUT1,1,43,3,4,1,4.03,43,1,3,118,1,IN/OUT0,3,4,1,1,1,1.63,4,1,2,118,1,leading/trailing1,2,41,2,5,1,2.34,41,1,2,118,1,IN/OUT0,1,46,2,2,1,1.87,46,1,2,118,1,IN/OUT1,1,661,2,3,1,3.57,661,1,3,118,1,IN/OUT1,1,68,2,4,1,3.52,68,1,2,118,1,IN/OUT1,1,17,1,3,1,0.644,17,1,2,118,1,IN/OUT1,2,835,2,7,1,3.72,835,1,3,118,1,IN/OUT1,3,28,1,4,1,3.21,28,1,3,118,1,leading/trailing1,4,480,3,5,1,3.45,480,1,3,118,1,leading/trailing1,4,170,3,5,1,1.88,170,1,3,118,1,leading/trailing1,1,254,3,5,1,3.43,254,1,3,118,1,IN/OUT0,1,98,2,2,1,4.29,98,1,2,118,1,IN/OUT1,3,37,1,5,1,2.94,37,1,3,118,1,leading/trailing0,4,130,3,1,1,1.91,13,0,3,118,1,leading/trailing0,4,10,2,1,1,3.77,10,1,2,118,1,leading/trailing1,2,291,3,7,1,3.46,291,1,3,118,1,IN/OUT0,1,75,2,2,1,2.78,75,1,2,118,1,IN/OUT1,4,40,2,5,1,3.15,40,1,2,118,1,leading/trailing1,2,1,1,4,1,2.68,1,1,2,118,1,IN/OUT1,1,84,3,5,1,3.03,84,1,3,118,1,IN/OUT0,3,47,1,1,1,3.02,47,1,3,118,1,leading/trailing1,4,560,3,4,1,5.17,560,1,3,118,1,leading/trailing1,4,880,3,6,1,2.38,880,1,3,118,1,leading/trailing1,3,3,1,5,1,2.32,3,1,2,118,1,leading/trailing0,1,9,2,2,1,0.753,9,1,2,118,1,IN/OUT1,1,197,1,3,1,2.36,197,1,3,118,1,IN/OUT0,1,464,2,2,1,5.71,464,1,3,118,1,IN/OUT1,2,492,3,6,1,5.63,492,1,3,118,1,IN/OUT1,2,70,1,7,1,3.48,70,1,2,118,1,IN/OUT1,3,6,1,6,1,2.79,6,1,2,118,1,leading/trailing1,1,22,2,3,1,1.88,22,1,2,118,1,IN/OUT1,4,490,3,5,1,1.22,490,1,3,118,1,leading/trailing0,3,81,1,1,1,3.03,81,1,3,118,1,leading/trailing1,4,170,3,5,1,2.29,170,1,3,118,1,leading/trailing0,1,747,3,2,1,5.57,707,0,3,118,1,IN/OUT1,1,73,1,3,1,2.52,70,0,2,118,1,IN/OUT1,3,95,1,7,1,3.54,95,1,3,118,1,leading/trailing0,1,239,3,2,1,2.9,239,1,3,118,1,IN/OUT1,2,70,2,4,1,1.54,70,1,2,118,1,IN/OUT0,4,480,3,1,1,1.92,480,1,3,118,1,leading/trailing1,3,49,1,6,1,2.8,49,1,3,118,1,leading/trailing1,4,30,2,7,1,2.83,30,1,2,118,1,leading/trailing1,1,626,3,3,1,2.64,626,1,3,118,1,IN/OUT0,4,630,3,1,1,3.41,630,1,3,118,1,leading/trailing1,4,40,2,4,1,2.81,40,1,2,118,1,leading/trailing1,1,20,1,4,1,3.18,20,1,2,118,1,IN/OUT1,3,2,1,7,1,1.67,2,1,2,118,1,leading/trailing1,4,20,2,5,1,1.55,20,1,2,118,1,leading/trailing1,3,95,1,6,1,2.13,95,1,3,118,1,leading/trailing1,4,260,3,7,1,3.13,26,0,3,118,1,leading/trailing0,2,412,2,1,1,3.33,412,1,3,118,1,IN/OUT0,2,64,2,1,1,2.49,60,0,2,118,1,IN/OUT1,4,580,3,7,1,2.72,580,1,3,118,1,leading/trailing1,1,450,1,5,1,1.66,450,1,3,118,1,IN/OUT1,2,33,2,7,1,0.811,33,1,2,118,1,IN/OUT0,2,473,1,1,1,2.47,473,1,3,118,1,IN/OUT1,4,880,3,7,1,1.26,880,1,3,118,1,leading/trailing1,4,860,3,7,1,2.07,860,1,3,118,1,leading/trailing1,3,36,1,6,1,2.37,86,0,3,118,1,leading/trailing1,3,26,1,6,1,2.51,26,1,3,118,1,leading/trailing1,2,358,1,7,1,3.32,358,1,3,118,1,IN/OUT1,3,81,1,6,1,3.03,81,1,3,118,1,leading/trailing1,4,40,2,5,1,1.47,40,1,2,118,1,leading/trailing1,4,40,2,7,1,1.73,40,1,2,118,1,leading/trailing0,2,71,2,1,1,2.27,71,1,2,118,1,IN/OUT1,2,82,2,6,1,2.56,82,1,2,118,1,IN/OUT1,1,704,3,3,1,1.83,704,1,3,118,1,IN/OUT1,3,6,1,5,1,3.79,6,1,2,118,1,leading/trailing0,2,99,1,1,1,2.43,99,1,3,118,1,IN/OUT1,3,5,1,6,1,3.08,5,1,2,118,1,leading/trailing0,4,60,2,1,1,4.77,60,1,2,118,1,leading/trailing1,3,6,1,6,1,2.07,6,1,2,118,1,leading/trailing1,4,60,2,5,1,2.01,60,1,2,118,1,leading/trailing1,2,13,1,7,1,1.76,13,1,2,118,1,IN/OUT1,3,71,1,5,1,1.68,71,1,3,118,1,leading/trailing1,4,70,2,4,1,1.38,70,1,2,118,1,leading/trailing1,1,57,2,4,1,1.69,57,1,2,118,1,IN/OUT0,4,50,2,1,1,1.64,10,0,2,118,1,leading/trailing1,2,23,1,6,1,3.37,23,1,2,118,1,IN/OUT0,3,8,1,1,1,1.59,8,1,2,118,1,leading/trailing1,1,33,1,3,1,1.11,33,1,2,118,1,IN/OUT1,1,2,2,3,1,1.29,2,1,2,118,1,IN/OUT0,2,38,1,1,1,1.91,38,1,2,118,1,IN/OUT1,2,98,2,7,1,2.55,98,1,2,118,1,IN/OUT1,1,989,1,4,1,4.22,989,1,3,118,1,IN/OUT1,3,28,1,6,1,2.1,28,1,3,118,1,leading/trailing1,4,470,3,4,1,1.55,470,1,3,118,1,leading/trailing0,4,630,3,1,1,3.32,630,1,3,118,1,leading/trailing0,2,22,2,1,1,1.99,22,1,3,118,1,IN/OUT1,1,70,1,4,1,3.86,70,1,2,118,1,IN/OUT1,2,850,3,6,1,1.85,850,1,3,118,1,IN/OUT