Heaven/Earth 0=Heaven; 1=Earth,Condition: 1= In Play; 2=Out of play; 3=leading; 4=trailing,Number Requested,"X: 1=Left most column, counting to the right to max of 2 or 3","Y: 1 equals top row (i.e., out of play heavenly bead), counting downwards to 7. ",Correct on Search task? Trials weith incorrect search responses were excluded from analysis,RT,Abacus entered: Only relevent to dual task,Correct on Abacus: only relevent to dual task,"Number of columns: occasionally you will see 0s in this column, this means the participant was in a pilot version with 4 columns and should be excluded. ",Subject Number: Assigned when extracted from .mat instead of alpha numeric number to make some things in life easier,<3Std Dev: removing outliers (2s). Calculated in linear space. Needs to be redone in log space,Inout or Leading trailing trial,Expertise level: ranges from 0 (none) to 2(has used abacus)1,2,35,2,4,1,2.35,0,0,2,301,1,IN/Out,21,2,915,2,6,1,1.12,0,0,3,301,1,IN/Out,20,1,54,1,2,1,0.79,0,0,2,301,1,IN/Out,20,4,90,2,1,1,1.58,0,0,2,301,1,leading/trailing,21,4,40,2,4,1,0.999,0,0,2,301,1,leading/trailing,20,3,3,1,1,1,0.855,0,0,2,301,1,leading/trailing,21,1,97,2,3,1,0.719,0,0,2,301,1,IN/Out,20,2,53,2,1,1,0.777,0,0,2,301,1,IN/Out,21,3,4,1,4,1,1.09,0,0,2,301,1,leading/trailing,21,3,76,1,6,0,1.21,0,0,3,301,1,leading/trailing,21,2,19,1,6,1,1.39,0,0,2,301,1,IN/Out,21,1,810,2,3,1,0.784,0,0,3,301,1,IN/Out,20,1,67,1,2,1,0.762,0,0,2,301,1,IN/Out,21,1,71,3,3,0,0.842,0,0,3,301,1,IN/Out,21,1,643,3,3,1,0.912,0,0,3,301,1,IN/Out,21,3,6,1,5,1,0.965,0,0,2,301,1,leading/trailing,21,4,850,3,5,1,1.71,0,0,3,301,1,leading/trailing,21,1,14,2,5,1,1.72,0,0,2,301,1,IN/Out,21,2,84,1,7,1,1.19,0,0,2,301,1,IN/Out,21,3,2,1,4,1,1.02,0,0,2,301,1,leading/trailing,21,4,950,3,5,1,1.29,0,0,3,301,1,leading/trailing,21,4,20,2,6,1,0.863,0,0,2,301,1,leading/trailing,21,1,63,2,4,1,0.667,0,0,2,301,1,IN/Out,21,2,945,3,4,1,0.687,0,0,3,301,1,IN/Out,20,3,51,1,1,1,1.11,0,0,3,301,1,leading/trailing,20,4,90,2,1,1,1.06,0,0,2,301,1,leading/trailing,20,2,238,1,1,1,0.836,0,0,3,301,1,IN/Out,21,4,20,2,5,1,1.64,0,0,2,301,1,leading/trailing,21,4,20,2,4,1,0.632,0,0,2,301,1,leading/trailing,21,2,672,2,7,1,1.42,0,0,3,301,1,IN/Out,20,4,80,2,1,1,1.08,0,0,2,301,1,leading/trailing,21,3,4,1,5,1,1.55,0,0,2,301,1,leading/trailing,21,2,74,1,7,1,1.67,0,0,2,301,1,IN/Out,21,2,90,2,6,1,1.02,0,0,2,301,1,IN/Out,21,2,585,3,4,1,0.703,0,0,3,301,1,IN/Out,21,2,120,2,6,1,0.937,0,0,3,301,1,IN/Out,20,3,76,1,1,1,1.15,0,0,3,301,1,leading/trailing,21,4,530,3,5,1,0.987,0,0,3,301,1,leading/trailing,20,3,89,1,1,1,1.13,0,0,3,301,1,leading/trailing,21,1,369,3,5,1,1.31,0,0,3,301,1,IN/Out,21,1,53,2,3,1,0.583,0,0,2,301,1,IN/Out,21,3,27,1,4,1,0.854,0,0,3,301,1,leading/trailing,21,3,6,1,6,1,1.02,0,0,2,301,1,leading/trailing,21,1,88,2,3,1,0.667,0,0,2,301,1,IN/Out,21,2,383,3,7,1,1.06,0,0,3,301,1,IN/Out,21,3,39,1,4,1,0.708,0,0,3,301,1,leading/trailing,21,4,660,3,5,1,0.967,0,0,3,301,1,leading/trailing,21,2,759,2,4,1,0.673,0,0,3,301,1,IN/Out,21,1,35,1,4,1,0.798,0,0,2,301,1,IN/Out,21,1,49,2,3,1,0.783,0,0,3,301,1,IN/Out,21,2,45,2,6,1,2.37,0,0,2,301,1,IN/Out,21,4,650,3,4,1,0.731,0,0,3,301,1,leading/trailing,20,1,339,3,2,1,0.655,0,0,3,301,1,IN/Out,21,3,2,1,4,1,0.82,0,0,2,301,1,leading/trailing,21,4,860,3,5,1,1.03,0,0,3,301,1,leading/trailing,21,2,25,1,7,1,1.57,0,0,2,301,1,IN/Out,21,1,98,2,5,1,1.34,0,0,3,301,1,IN/Out,21,1,766,1,3,1,1.1,0,0,3,301,1,IN/Out,20,2,156,1,1,1,0.843,0,0,3,301,1,IN/Out,21,3,47,1,5,1,1.46,0,0,3,301,1,leading/trailing,21,2,95,2,5,1,0.941,0,0,2,301,1,IN/Out,21,2,718,2,6,0,1.59,0,0,3,301,1,IN/Out,21,4,70,2,5,1,0.968,0,0,2,301,1,leading/trailing,21,3,8,1,6,1,1.03,0,0,2,301,1,leading/trailing,20,3,2,1,1,1,1.58,0,0,2,301,1,leading/trailing,20,1,252,2,2,1,0.746,0,0,3,301,1,IN/Out,21,4,90,2,6,1,1.03,0,0,2,301,1,leading/trailing,20,1,63,2,2,1,0.975,0,0,3,301,1,IN/Out,20,1,148,3,2,1,0.624,0,0,3,301,1,IN/Out,20,3,58,1,1,1,1.56,0,0,3,301,1,leading/trailing,21,1,798,1,4,1,1.07,0,0,3,301,1,IN/Out,21,1,75,1,4,1,0.637,0,0,2,301,1,IN/Out,21,2,457,3,7,1,0.794,0,0,3,301,1,IN/Out,20,1,5,2,2,1,0.824,0,0,2,301,1,IN/Out,21,3,89,1,4,1,0.868,0,0,3,301,1,leading/trailing,20,4,710,3,1,1,0.993,0,0,3,301,1,leading/trailing,21,1,192,3,3,1,0.75,0,0,3,301,1,IN/Out,21,4,10,2,4,1,0.608,0,0,2,301,1,leading/trailing,21,2,66,1,5,1,0.99,0,0,2,301,1,IN/Out,21,1,968,3,3,1,0.675,0,0,3,301,1,IN/Out,21,3,36,1,7,1,1.74,0,0,3,301,1,leading/trailing,21,1,906,1,3,1,0.743,0,0,3,301,1,IN/Out,21,3,9,1,6,0,1.01,0,0,2,301,1,leading/trailing,21,4,150,3,7,1,0.793,0,0,3,301,1,leading/trailing,21,3,1,1,7,1,0.889,0,0,2,301,1,leading/trailing,21,1,9,2,4,1,0.621,0,0,2,301,1,IN/Out,20,2,1,1,1,1,2.23,0,0,3,301,1,IN/Out,21,4,60,2,7,1,0.959,0,0,2,301,1,leading/trailing,20,4,120,3,1,1,0.758,0,0,3,301,1,leading/trailing,21,3,74,1,4,1,0.782,0,0,3,301,1,leading/trailing,21,3,9,1,5,1,1,0,0,2,301,1,leading/trailing,21,4,70,2,7,1,0.86,0,0,2,301,1,leading/trailing,21,3,8,1,4,1,0.6,0,0,2,301,1,leading/trailing,21,2,417,3,6,1,0.744,0,0,3,301,1,IN/Out,21,2,13,1,6,1,0.769,0,0,2,301,1,IN/Out,21,2,67,1,5,1,0.898,0,0,2,301,1,IN/Out,21,1,94,1,5,1,0.956,0,0,2,301,1,IN/Out,21,1,22,3,4,1,0.637,0,0,3,301,1,IN/Out,20,4,190,3,1,1,0.754,0,0,3,301,1,leading/trailing,21,3,22,1,5,1,0.843,0,0,3,301,1,leading/trailing,21,1,97,1,6,1,0.953,0,0,2,301,1,IN/Out,21,2,481,3,6,1,0.69,0,0,3,301,1,IN/Out,20,2,74,2,1,1,1.15,0,0,2,301,1,IN/Out,21,3,16,1,7,1,1.06,0,0,3,301,1,leading/trailing,21,4,90,2,4,1,0.593,0,0,2,301,1,leading/trailing,21,4,50,2,6,1,0.842,0,0,2,301,1,leading/trailing,21,2,73,2,7,1,0.637,0,0,2,301,1,IN/Out,21,3,42,1,7,1,1.11,0,0,3,301,1,leading/trailing,20,3,4,1,1,1,1.1,0,0,2,301,1,leading/trailing,20,4,750,3,1,1,0.686,0,0,3,301,1,leading/trailing,21,4,70,2,6,1,0.986,0,0,2,301,1,leading/trailing,21,4,310,3,5,1,0.602,0,0,3,301,1,leading/trailing,21,4,920,3,7,0,2.03,0,0,3,301,1,leading/trailing,20,2,11,1,1,1,1.32,0,0,2,301,1,IN/Out,20,4,90,2,1,1,1.03,0,0,2,301,1,leading/trailing,21,4,910,3,5,1,0.686,0,0,3,301,1,leading/trailing,21,3,9,1,5,1,2.04,0,0,2,301,1,leading/trailing,21,4,380,3,5,1,0.71,0,0,3,301,1,leading/trailing,21,2,855,1,7,1,0.968,0,0,3,301,1,IN/Out,21,1,49,2,5,1,0.864,0,0,2,301,1,IN/Out,21,4,660,3,5,1,0.906,0,0,3,301,1,leading/trailing,21,3,97,1,7,1,0.791,0,0,3,301,1,leading/trailing,21,3,37,1,6,1,1.07,0,0,3,301,1,leading/trailing,21,1,75,1,3,1,0.862,0,0,2,301,1,IN/Out,20,2,440,3,1,1,0.785,0,0,3,301,1,IN/Out,20,3,9,1,1,1,1.31,0,0,2,301,1,leading/trailing,20,2,45,1,1,1,1.08,0,0,2,301,1,IN/Out,20,1,19,2,2,1,0.705,0,0,2,301,1,IN/Out,21,3,32,1,7,1,5.24,0,0,3,302,1,leading/trailing,01,3,74,1,6,1,1.46,0,0,3,302,1,leading/trailing,01,3,79,1,4,1,2.16,0,0,3,302,1,leading/trailing,00,1,57,2,2,1,2.09,0,0,2,302,1,IN/Out,01,1,28,1,4,1,2.74,0,0,2,302,1,IN/Out,01,1,251,3,3,1,1.6,0,0,3,302,1,IN/Out,01,3,59,1,6,1,1.6,0,0,3,302,1,leading/trailing,01,1,43,1,6,1,1.51,0,0,2,302,1,IN/Out,01,2,63,2,7,1,4.51,0,0,2,302,1,IN/Out,01,2,47,2,6,1,1.1,0,0,2,302,1,IN/Out,01,3,7,1,7,1,1.48,0,0,2,302,1,leading/trailing,01,2,786,3,6,1,1.84,0,0,3,302,1,IN/Out,01,4,310,3,4,1,1.28,0,0,3,302,1,leading/trailing,01,4,70,2,6,1,1.44,0,0,2,302,1,leading/trailing,01,2,432,3,7,1,1.27,0,0,3,302,1,IN/Out,01,4,470,3,7,1,1.2,0,0,3,302,1,leading/trailing,00,4,870,3,1,1,1.98,0,0,3,302,1,leading/trailing,01,2,145,3,4,1,1.08,0,0,3,302,1,IN/Out,01,4,230,3,6,1,1.22,0,0,3,302,1,leading/trailing,00,2,48,1,1,1,2.64,0,0,2,302,1,IN/Out,01,1,692,3,3,1,2.4,0,0,3,302,1,IN/Out,01,3,9,1,7,1,1.73,0,0,2,302,1,leading/trailing,01,2,961,2,5,1,1.08,0,0,3,302,1,IN/Out,01,1,95,1,6,1,1.21,0,0,2,302,1,IN/Out,00,1,52,1,2,0,0.932,0,0,2,302,1,IN/Out,01,3,12,1,6,1,2.49,0,0,3,302,1,leading/trailing,01,1,64,2,6,1,1.38,0,0,2,302,1,IN/Out,00,2,50,2,1,1,1.25,0,0,2,302,1,IN/Out,01,2,9,1,6,1,1.25,0,0,2,302,1,IN/Out,01,4,30,2,7,1,1.05,0,0,2,302,1,leading/trailing,01,3,69,1,4,1,1.54,0,0,3,302,1,leading/trailing,00,3,4,1,1,1,1.07,0,0,2,302,1,leading/trailing,01,2,17,1,6,1,1.47,0,0,2,302,1,IN/Out,00,2,770,3,1,1,2.03,0,0,3,302,1,IN/Out,00,4,20,2,1,1,0.915,0,0,2,302,1,leading/trailing,01,3,4,1,4,1,0.974,0,0,2,302,1,leading/trailing,01,1,156,3,3,1,1.43,0,0,3,302,1,IN/Out,01,2,8,1,4,1,2.67,0,0,2,302,1,IN/Out,00,3,19,1,1,1,1.76,0,0,3,302,1,leading/trailing,01,3,68,1,5,1,1.57,0,0,3,302,1,leading/trailing,01,4,80,2,5,1,0.826,0,0,2,302,1,leading/trailing,01,4,40,2,7,1,0.754,0,0,2,302,1,leading/trailing,01,4,860,3,5,1,0.954,0,0,3,302,1,leading/trailing,01,4,240,3,5,1,0.845,0,0,3,302,1,leading/trailing,01,4,140,3,4,1,0.842,0,0,3,302,1,leading/trailing,01,2,877,1,7,1,3.13,0,0,3,302,1,IN/Out,00,3,5,1,1,1,0.737,0,0,2,302,1,leading/trailing,00,1,9,2,2,1,0.708,0,0,2,302,1,IN/Out,01,2,65,1,7,1,1.11,0,0,2,302,1,IN/Out,01,4,90,2,5,1,1.57,0,0,2,302,1,leading/trailing,01,1,24,2,3,1,3.09,0,0,2,302,1,IN/Out,01,1,34,1,3,1,0.765,0,0,2,302,1,IN/Out,01,4,20,2,5,1,1.23,0,0,2,302,1,leading/trailing,00,4,40,2,1,1,1.07,0,0,2,302,1,leading/trailing,01,1,851,1,4,1,1.36,0,0,3,302,1,IN/Out,00,2,52,2,1,1,0.786,0,0,2,302,1,IN/Out,01,1,178,3,3,1,0.701,0,0,3,302,1,IN/Out,01,2,24,1,6,1,1.12,0,0,2,302,1,IN/Out,01,1,47,2,3,1,2.35,0,0,2,302,1,IN/Out,00,3,82,1,1,1,1,0,0,3,302,1,leading/trailing,01,1,564,3,5,1,1.23,0,0,3,302,1,IN/Out,01,4,640,3,4,1,1.25,0,0,3,302,1,leading/trailing,00,4,830,3,1,1,0.808,0,0,3,302,1,leading/trailing,01,2,200,3,5,1,1.21,0,0,3,302,1,IN/Out,00,2,361,3,1,1,3.54,0,0,3,302,1,IN/Out,01,1,774,3,3,1,1.05,0,0,3,302,1,IN/Out,00,3,7,1,1,1,0.765,0,0,2,302,1,leading/trailing,01,3,53,1,7,1,3.01,0,0,3,302,1,leading/trailing,01,3,35,1,4,1,1.74,0,0,3,302,1,leading/trailing,01,4,60,2,7,1,1.89,0,0,2,302,1,leading/trailing,01,1,67,1,3,1,1.02,0,0,2,302,1,IN/Out,01,4,20,2,5,1,1.07,0,0,2,302,1,leading/trailing,01,1,994,3,3,1,1.88,0,0,3,302,1,IN/Out,01,4,940,3,6,1,6.25,0,0,3,302,1,leading/trailing,01,4,770,3,6,1,1.46,0,0,3,302,1,leading/trailing,00,4,30,2,1,1,0.961,0,0,2,302,1,leading/trailing,01,2,526,1,7,1,2.09,0,0,3,302,1,IN/Out,01,3,81,1,7,1,1.94,0,0,3,302,1,leading/trailing,01,3,1,1,6,1,1.93,0,0,2,302,1,leading/trailing,00,3,79,1,1,1,3.64,0,0,3,302,1,leading/trailing,01,2,53,1,4,1,1.45,0,0,2,302,1,IN/Out,00,1,896,2,2,1,1.09,0,0,3,302,1,IN/Out,00,2,764,3,1,1,2.08,0,0,3,302,1,IN/Out,01,3,2,1,6,1,1.8,0,0,2,302,1,leading/trailing,00,2,115,1,1,1,0.686,0,0,3,302,1,IN/Out,01,2,916,2,5,1,2.59,0,0,3,302,1,IN/Out,00,1,902,1,2,1,1.85,0,0,3,302,1,IN/Out,01,4,10,2,7,1,1.64,0,0,2,302,1,leading/trailing,01,3,34,1,4,1,1.42,0,0,3,302,1,leading/trailing,01,2,261,2,6,1,1.77,0,0,3,302,1,IN/Out,01,2,27,1,6,1,1.59,0,0,2,302,1,IN/Out,01,4,10,2,7,1,1.43,0,0,2,302,1,leading/trailing,00,3,79,1,1,1,0.639,0,0,3,302,1,leading/trailing,01,4,140,3,4,1,1.44,0,0,3,302,1,leading/trailing,01,2,537,3,6,1,1.35,0,0,3,302,1,IN/Out,00,4,970,3,1,1,1.96,0,0,3,302,1,leading/trailing,01,1,159,3,3,1,1.6,0,0,3,302,1,IN/Out,01,2,62,1,5,1,1.73,0,0,2,302,1,IN/Out,01,4,520,3,7,1,1.36,0,0,3,302,1,leading/trailing,01,1,54,2,6,1,2.52,0,0,2,302,1,IN/Out,00,1,804,1,2,1,1.15,0,0,3,302,1,IN/Out,01,1,28,1,3,1,1.13,0,0,2,302,1,IN/Out,00,1,39,2,2,1,0.998,0,0,2,302,1,IN/Out,01,1,348,1,5,1,1.32,0,0,3,302,1,IN/Out,01,2,622,2,7,1,1.8,0,0,3,302,1,IN/Out,00,3,2,1,1,1,0.985,0,0,2,302,1,leading/trailing,01,2,4,1,7,1,1.79,0,0,2,302,1,IN/Out,01,2,70,1,7,1,1.93,0,0,2,302,1,IN/Out,01,4,850,3,6,1,1.66,0,0,3,302,1,leading/trailing,01,3,2,1,7,1,1.28,0,0,2,302,1,leading/trailing,00,2,92,2,1,1,1.74,0,0,2,302,1,IN/Out,01,1,53,2,4,1,2.64,0,0,2,302,1,IN/Out,01,3,3,1,6,1,1.4,0,0,2,302,1,leading/trailing,01,4,80,2,7,1,1.17,0,0,2,302,1,leading/trailing,01,3,9,1,4,1,1.6,0,0,2,302,1,leading/trailing,01,3,3,1,4,0,1.03,0,0,2,302,1,leading/trailing,01,3,2,1,7,1,1.36,0,0,2,302,1,leading/trailing,01,4,20,2,6,1,1.72,0,0,2,302,1,leading/trailing,00,4,570,3,1,1,1.47,0,0,3,302,1,leading/trailing,01,1,51,2,3,1,0.901,0,0,2,302,1,IN/Out,01,3,5,1,4,1,0.655,0,0,2,302,1,leading/trailing,01,3,8,1,7,1,1.12,0,0,2,302,1,leading/trailing,01,1,829,1,3,1,1.19,0,0,3,302,1,IN/Out,01,2,71,3,7,1,1.13,0,0,3,302,1,IN/Out,00,4,70,2,1,1,0.992,0,0,2,302,1,leading/trailing,01,1,58,3,5,1,1.13,0,0,3,302,1,IN/Out,00,1,488,3,2,1,1.42,0,0,3,302,1,IN/Out,01,3,88,1,4,0,0.809,0,0,3,302,1,leading/trailing,01,1,7,2,4,1,2.28,0,0,2,303,1,IN/Out,01,2,491,3,6,1,1.72,0,0,3,303,1,IN/Out,01,2,906,3,5,1,1.29,0,0,3,303,1,IN/Out,01,4,510,3,4,1,1.41,0,0,3,303,1,leading/trailing,01,3,4,1,5,1,1.15,0,0,2,303,1,leading/trailing,01,4,10,2,5,1,1.43,0,0,2,303,1,leading/trailing,01,3,7,1,7,1,1.22,0,0,2,303,1,leading/trailing,01,2,778,3,7,1,1.78,0,0,3,303,1,IN/Out,00,1,916,3,2,1,1.98,0,0,3,303,1,IN/Out,01,1,46,1,3,1,0.974,0,0,2,303,1,IN/Out,01,4,90,2,7,1,1.28,0,0,2,303,1,leading/trailing,01,2,1,1,6,1,1.86,0,0,2,303,1,IN/Out,00,2,379,1,1,1,1.79,0,0,3,303,1,IN/Out,00,3,78,1,1,1,1.21,0,0,3,303,1,leading/trailing,01,4,30,2,6,1,1.25,0,0,2,303,1,leading/trailing,01,2,34,1,7,1,2.81,0,0,2,303,1,IN/Out,01,1,948,3,4,1,1.57,0,0,3,303,1,IN/Out,00,4,10,2,1,1,1.77,0,0,2,303,1,leading/trailing,00,2,960,3,1,1,1.39,0,0,3,303,1,IN/Out,01,4,690,3,5,1,1.07,0,0,3,303,1,leading/trailing,00,2,213,1,1,1,1.77,0,0,3,303,1,IN/Out,01,4,620,3,4,1,1.02,0,0,3,303,1,leading/trailing,01,3,27,1,4,1,1.15,0,0,3,303,1,leading/trailing,01,2,51,2,5,1,1.06,0,0,2,303,1,IN/Out,01,2,55,1,7,1,1.16,0,0,2,303,1,IN/Out,01,1,302,1,3,1,1.35,0,0,3,303,1,IN/Out,00,2,20,1,1,1,1.81,0,0,2,303,1,IN/Out,00,3,1,1,1,1,1.56,0,0,2,303,1,leading/trailing,00,1,51,1,2,1,0.876,0,0,2,303,1,IN/Out,01,3,7,1,4,1,0.959,0,0,2,303,1,leading/trailing,01,1,121,2,4,1,1.22,0,0,3,303,1,IN/Out,01,1,66,1,3,1,0.811,0,0,2,303,1,IN/Out,01,1,323,2,3,1,1.31,0,0,3,303,1,IN/Out,01,2,65,1,6,1,1.16,0,0,2,303,1,IN/Out,01,3,57,1,4,1,1.07,0,0,3,303,1,leading/trailing,00,3,24,1,1,1,1.68,0,0,3,303,1,leading/trailing,00,2,53,2,1,1,1.41,0,0,2,303,1,IN/Out,01,2,34,1,7,1,1.41,0,0,2,303,1,IN/Out,01,4,220,3,5,1,1.14,0,0,3,303,1,leading/trailing,01,2,481,3,5,1,0.986,0,0,3,303,1,IN/Out,01,4,80,2,4,1,0.915,0,0,2,303,1,leading/trailing,01,4,40,2,6,1,0.866,0,0,2,303,1,leading/trailing,01,4,810,3,7,1,1.19,0,0,3,303,1,leading/trailing,01,3,12,1,6,1,1.34,0,0,3,303,1,leading/trailing,01,3,3,1,6,1,1.1,0,0,2,303,1,leading/trailing,01,2,245,3,6,1,1.35,0,0,3,303,1,IN/Out,01,3,1,1,4,1,0.869,0,0,2,303,1,leading/trailing,01,2,611,1,6,1,0.871,0,0,3,303,1,IN/Out,01,1,57,2,3,1,0.826,0,0,2,303,1,IN/Out,01,1,188,2,3,1,0.876,0,0,3,303,1,IN/Out,00,1,903,1,2,1,0.745,0,0,3,303,1,IN/Out,01,1,297,2,6,1,0.743,0,0,3,303,1,IN/Out,01,3,7,1,6,1,0.848,0,0,2,303,1,leading/trailing,01,3,6,1,5,1,1.04,0,0,2,303,1,leading/trailing,01,2,45,2,4,1,0.738,0,0,2,303,1,IN/Out,01,1,64,1,3,1,0.801,0,0,2,303,1,IN/Out,00,3,1,1,1,1,0.793,0,0,2,303,1,leading/trailing,01,2,754,2,4,1,1.83,0,0,3,303,1,IN/Out,01,4,650,3,7,1,1.08,0,0,3,303,1,leading/trailing,01,3,2,1,5,1,0.988,0,0,2,303,1,leading/trailing,00,4,250,3,1,1,2.38,0,0,3,303,1,leading/trailing,01,2,85,1,7,1,1.29,0,0,2,303,1,IN/Out,01,3,84,1,5,1,0.974,0,0,3,303,1,leading/trailing,01,1,32,1,5,1,0.942,0,0,2,303,1,IN/Out,01,2,671,1,5,1,1.24,0,0,3,303,1,IN/Out,00,3,38,1,1,1,0.885,0,0,3,303,1,leading/trailing,01,4,60,2,5,1,1.23,0,0,2,303,1,leading/trailing,01,1,389,3,3,1,1.36,0,0,3,303,1,IN/Out,01,1,40,1,6,1,1.38,0,0,2,303,1,IN/Out,00,4,10,2,1,1,0.833,0,0,2,303,1,leading/trailing,00,1,54,1,2,1,0.813,0,0,2,303,1,IN/Out,01,4,580,3,5,1,1.07,0,0,3,303,1,leading/trailing,00,4,910,3,1,1,1.24,0,0,3,303,1,leading/trailing,00,1,153,2,2,1,0.952,0,0,3,303,1,IN/Out,01,3,91,1,7,1,1.21,0,0,3,303,1,leading/trailing,00,3,98,1,1,1,0.77,0,0,3,303,1,leading/trailing,00,2,626,2,1,1,1.12,0,0,3,303,1,IN/Out,01,1,1,2,3,1,1.1,0,0,2,303,1,IN/Out,01,2,737,3,6,1,1.04,0,0,3,303,1,IN/Out,01,3,5,1,7,1,1.22,0,0,2,303,1,leading/trailing,01,3,7,1,7,1,1.01,0,0,2,303,1,leading/trailing,01,4,50,2,7,1,0.977,0,0,2,303,1,leading/trailing,01,1,99,1,4,1,0.857,0,0,2,303,1,IN/Out,01,1,463,1,6,1,1.12,0,0,3,303,1,IN/Out,01,1,42,2,4,1,0.885,0,0,2,303,1,IN/Out,01,4,440,3,4,1,0.749,0,0,3,303,1,leading/trailing,00,1,88,2,2,1,1.01,0,0,2,303,1,IN/Out,01,4,710,3,4,1,0.979,0,0,3,303,1,leading/trailing,00,2,20,2,1,1,0.738,0,0,2,303,1,IN/Out,01,1,230,2,5,1,1.02,0,0,3,303,1,IN/Out,00,1,36,2,2,1,0.886,0,0,2,303,1,IN/Out,01,2,337,1,7,1,1.35,0,0,3,303,1,IN/Out,01,2,83,2,7,1,0.921,0,0,2,303,1,IN/Out,01,4,10,2,7,1,0.673,0,0,2,303,1,leading/trailing,01,1,117,2,3,1,0.906,0,0,3,303,1,IN/Out,01,3,9,1,5,1,1.14,0,0,2,303,1,leading/trailing,00,4,30,2,1,1,1.17,0,0,2,303,1,leading/trailing,00,4,560,3,1,1,0.731,0,0,3,303,1,leading/trailing,01,3,35,1,7,1,1.36,0,0,3,303,1,leading/trailing,01,4,40,2,7,1,1.48,0,0,2,303,1,leading/trailing,01,4,110,3,7,1,1.19,0,0,3,303,1,leading/trailing,01,4,80,2,5,1,1.04,0,0,2,303,1,leading/trailing,01,3,29,1,6,1,1.25,0,0,3,303,1,leading/trailing,01,4,250,3,6,1,1.22,0,0,3,303,1,leading/trailing,01,3,73,1,4,1,0.964,0,0,3,303,1,leading/trailing,00,3,4,1,1,1,1.23,0,0,2,303,1,leading/trailing,01,4,10,2,7,1,1.68,0,0,2,303,1,leading/trailing,01,2,356,2,6,1,1.77,0,0,3,303,1,IN/Out,00,4,940,3,1,1,1.51,0,0,3,303,1,leading/trailing,01,3,59,1,5,1,1.41,0,0,3,303,1,leading/trailing,01,2,10,1,5,1,1.03,0,0,2,303,1,IN/Out,01,3,82,1,4,1,1.31,0,0,3,303,1,leading/trailing,01,1,434,3,3,1,1.4,0,0,3,303,1,IN/Out,01,2,42,2,6,1,0.857,0,0,2,303,1,IN/Out,00,1,664,1,2,1,1.13,0,0,3,303,1,IN/Out,01,1,26,1,3,1,1.21,0,0,2,303,1,IN/Out,01,1,579,2,3,1,1.29,0,0,3,303,1,IN/Out,01,2,22,1,7,1,1.41,0,0,2,303,1,IN/Out,00,4,60,2,1,1,1.02,0,0,2,303,1,leading/trailing,01,2,67,1,5,1,1.56,0,0,3,303,1,IN/Out,00,2,38,1,1,1,1.21,0,0,2,303,1,IN/Out,01,4,80,2,5,1,0.977,0,0,2,303,1,leading/trailing,01,1,62,2,3,1,1.1,0,0,2,303,1,IN/Out,01,4,750,3,6,1,1.5,0,0,3,303,1,leading/trailing,00,3,6,1,1,1,1.1,0,0,2,303,1,leading/trailing,01,3,53,1,6,1,1.52,0,0,3,303,1,leading/trailing,01,3,77,1,4,1,1.17,0,0,3,303,1,leading/trailing,01,3,8,1,6,1,1.38,0,0,2,303,1,leading/trailing,01,3,47,1,6,1,3.45,0,0,3,304,1,leading/trailing,01,3,2,1,4,1,0.94,0,0,2,304,1,leading/trailing,01,2,2,1,5,1,0.779,0,0,2,304,1,IN/Out,01,1,338,2,4,1,0.714,0,0,3,304,1,IN/Out,00,4,50,2,1,1,0.893,0,0,2,304,1,leading/trailing,01,3,1,1,4,1,1.98,0,0,2,304,1,leading/trailing,01,4,320,3,4,1,2.18,0,0,3,304,1,leading/trailing,00,2,240,2,1,1,2.35,0,0,3,304,1,IN/Out,01,3,46,1,6,1,1.26,0,0,3,304,1,leading/trailing,01,2,562,1,6,1,1.14,0,0,3,304,1,IN/Out,00,3,73,1,1,1,1.05,0,0,3,304,1,leading/trailing,01,4,90,2,5,0,1.31,0,0,2,304,1,leading/trailing,00,1,92,1,2,1,2.31,0,0,2,304,1,IN/Out,01,3,1,1,6,1,1.61,0,0,2,304,1,leading/trailing,01,1,784,3,6,1,1.35,0,0,3,304,1,IN/Out,01,1,70,1,3,1,0.959,0,0,2,304,1,IN/Out,01,4,50,2,7,1,0.8,0,0,2,304,1,leading/trailing,01,2,40,2,6,1,1.2,0,0,2,304,1,IN/Out,01,1,66,1,3,1,1.08,0,0,2,304,1,IN/Out,01,1,755,1,4,1,0.83,0,0,3,304,1,IN/Out,01,4,740,3,5,1,1.08,0,0,3,304,1,leading/trailing,01,2,13,1,6,1,0.974,0,0,2,304,1,IN/Out,01,4,280,3,6,1,1.03,0,0,3,304,1,leading/trailing,00,3,46,1,1,1,1.08,0,0,3,304,1,leading/trailing,01,2,570,1,6,1,0.948,0,0,3,304,1,IN/Out,01,2,83,2,7,1,1.56,0,0,2,304,1,IN/Out,01,1,536,2,4,1,0.924,0,0,3,304,1,IN/Out,01,4,680,3,5,1,4.26,0,0,3,304,1,leading/trailing,01,3,82,1,5,1,1.26,0,0,3,304,1,leading/trailing,01,3,14,1,6,1,1.23,0,0,3,304,1,leading/trailing,00,4,860,3,1,1,1.55,0,0,3,304,1,leading/trailing,00,2,63,2,1,1,1.1,0,0,2,304,1,IN/Out,01,3,9,1,4,1,0.833,0,0,2,304,1,leading/trailing,01,2,37,1,7,1,0.983,0,0,3,304,1,IN/Out,00,2,161,1,1,1,2.03,0,0,3,304,1,IN/Out,01,1,9,2,4,1,1.12,0,0,2,304,1,IN/Out,01,3,48,1,7,1,0.937,0,0,3,304,1,leading/trailing,01,4,40,2,5,1,1.45,0,0,2,304,1,leading/trailing,01,4,930,3,7,1,0.892,0,0,3,304,1,leading/trailing,00,3,1,1,1,1,1.02,0,0,2,304,1,leading/trailing,01,3,2,1,7,1,1.01,0,0,2,304,1,leading/trailing,00,3,47,1,1,1,0.895,0,0,3,304,1,leading/trailing,01,1,83,1,3,1,1.43,0,0,2,304,1,IN/Out,01,1,868,3,5,1,0.964,0,0,3,304,1,IN/Out,01,4,890,3,6,1,1.23,0,0,3,304,1,leading/trailing,00,2,74,2,1,1,0.999,0,0,2,304,1,IN/Out,01,2,60,1,5,1,2.02,0,0,2,304,1,IN/Out,01,2,352,2,4,1,1.05,0,0,3,304,1,IN/Out,01,3,73,1,5,1,1.13,0,0,3,304,1,leading/trailing,01,2,762,2,7,1,1.01,0,0,3,304,1,IN/Out,01,2,984,2,7,1,1.24,0,0,3,304,1,IN/Out,01,1,487,1,5,1,1.31,0,0,3,304,1,IN/Out,01,4,260,3,7,1,1.75,0,0,3,304,1,leading/trailing,00,1,96,1,2,1,1.24,0,0,2,304,1,IN/Out,01,4,80,2,7,1,1.14,0,0,2,304,1,leading/trailing,01,1,4,2,4,0,1.48,0,0,2,304,1,IN/Out,01,4,20,2,5,1,0.934,0,0,2,304,1,leading/trailing,00,3,6,1,1,1,1.15,0,0,2,304,1,leading/trailing,01,3,7,1,4,1,0.838,0,0,2,304,1,leading/trailing,01,4,80,2,6,1,0.932,0,0,2,304,1,leading/trailing,00,4,180,3,1,1,1.39,0,0,3,304,1,leading/trailing,01,3,95,1,6,1,0.887,0,0,3,304,1,leading/trailing,00,2,63,2,1,1,1.19,0,0,2,304,1,IN/Out,01,4,30,2,5,1,1.07,0,0,2,304,1,leading/trailing,01,1,26,2,3,1,0.675,0,0,2,304,1,IN/Out,01,3,71,1,6,1,1.19,0,0,3,304,1,leading/trailing,00,2,694,3,1,1,1.33,0,0,3,304,1,IN/Out,01,1,482,1,4,1,0.733,0,0,3,304,1,IN/Out,01,4,170,3,5,1,0.707,0,0,3,304,1,leading/trailing,01,3,95,1,6,0,0.74,0,0,3,304,1,leading/trailing,01,1,39,2,6,1,0.976,0,0,2,304,1,IN/Out,00,4,860,3,1,1,1.26,0,0,3,304,1,leading/trailing,00,4,10,2,1,1,0.625,0,0,2,304,1,leading/trailing,01,1,64,2,3,1,0.692,0,0,2,304,1,IN/Out,00,1,825,1,2,1,1.04,0,0,3,304,1,IN/Out,01,3,9,1,4,1,2.25,0,0,2,304,1,leading/trailing,00,3,4,1,1,1,0.748,0,0,2,304,1,leading/trailing,01,2,810,1,7,1,1.51,0,0,3,304,1,IN/Out,01,2,33,2,7,1,1.66,0,0,2,304,1,IN/Out,01,2,32,2,7,1,0.638,0,0,2,304,1,IN/Out,01,3,42,1,5,1,0.818,0,0,3,304,1,leading/trailing,01,4,260,3,7,1,0.837,0,0,3,304,1,leading/trailing,01,1,43,1,3,1,0.708,0,0,2,304,1,IN/Out,01,1,423,2,3,1,1.41,0,0,3,304,1,IN/Out,01,3,7,1,5,0,0.825,0,0,2,304,1,leading/trailing,01,3,5,1,5,1,1.24,0,0,2,304,1,leading/trailing,01,4,70,2,5,0,1.65,0,0,2,304,1,leading/trailing,01,3,8,1,4,1,1.68,0,0,2,304,1,leading/trailing,01,1,907,1,3,1,1.83,0,0,3,304,1,IN/Out,00,2,564,3,1,1,1.27,0,0,3,304,1,IN/Out,01,2,76,2,5,1,1.39,0,0,2,304,1,IN/Out,01,4,590,3,5,1,1.04,0,0,3,304,1,leading/trailing,00,1,933,1,2,1,0.826,0,0,3,304,1,IN/Out,01,4,210,3,4,1,0.904,0,0,3,304,1,leading/trailing,01,4,70,2,5,1,0.826,0,0,2,304,1,leading/trailing,01,4,30,2,4,1,0.79,0,0,2,304,1,leading/trailing,01,2,995,3,6,1,0.821,0,0,3,304,1,IN/Out,00,3,13,1,1,1,0.96,0,0,3,304,1,leading/trailing,01,2,686,3,5,1,0.873,0,0,3,304,1,IN/Out,01,1,10,1,3,1,0.876,0,0,2,304,1,IN/Out,00,4,10,2,1,1,1.25,0,0,2,304,1,leading/trailing,01,3,94,1,5,1,0.888,0,0,3,304,1,leading/trailing,01,1,11,2,3,1,0.891,0,0,3,304,1,IN/Out,00,1,925,3,2,1,0.852,0,0,3,304,1,IN/Out,01,2,719,1,6,1,1.85,0,0,3,304,1,IN/Out,00,3,1,1,1,1,1.19,0,0,2,304,1,leading/trailing,01,1,37,1,4,1,0.647,0,0,2,304,1,IN/Out,01,3,3,1,5,1,0.741,0,0,2,304,1,leading/trailing,01,2,78,1,7,1,0.949,0,0,2,304,1,IN/Out,00,1,15,2,2,1,0.756,0,0,2,304,1,IN/Out,00,4,740,3,1,1,0.834,0,0,3,304,1,leading/trailing,01,2,150,3,7,1,1.82,0,0,3,304,1,IN/Out,00,1,46,2,2,1,1.33,0,0,2,304,1,IN/Out,01,1,142,3,3,1,1.97,0,0,3,304,1,IN/Out,01,2,57,2,6,1,1.25,0,0,2,304,1,IN/Out,01,1,28,2,5,1,0.922,0,0,2,304,1,IN/Out,01,4,50,2,7,1,0.915,0,0,2,304,1,leading/trailing,00,2,47,1,1,1,1.88,0,0,2,304,1,IN/Out,01,2,5,1,4,1,1.17,0,0,2,304,1,IN/Out,01,3,35,1,4,1,0.93,0,0,3,304,1,leading/trailing,01,3,1,1,6,1,1.02,0,0,2,304,1,leading/trailing,01,4,20,2,7,1,1.05,0,0,2,304,1,leading/trailing,01,2,556,2,4,1,1.18,0,0,3,304,1,IN/Out,01,1,856,1,3,1,1.09,0,0,3,304,1,IN/Out,01,4,180,3,6,1,1.39,0,0,3,304,1,leading/trailing,01,2,68,1,7,1,1.66,0,0,2,304,1,IN/Out,00,4,40,2,1,0,1.45,0,0,2,304,1,leading/trailing,00,1,927,3,2,1,1.1,0,0,3,304,1,IN/Out,01,3,3,1,4,1,2.29,0,0,2,305,1,leading/trailing,01,4,410,3,4,1,1.27,0,0,3,305,1,leading/trailing,01,3,83,1,7,1,1.12,0,0,3,305,1,leading/trailing,01,4,20,2,6,1,0.8,0,0,2,305,1,leading/trailing,00,1,246,3,2,0,1.42,0,0,3,305,1,IN/Out,01,1,345,1,3,1,0.883,0,0,3,305,1,IN/Out,01,1,27,2,4,1,0.817,0,0,2,305,1,IN/Out,01,1,73,2,4,1,0.734,0,0,2,305,1,IN/Out,00,4,30,2,1,1,0.8,0,0,2,305,1,leading/trailing,00,3,46,1,1,1,1.01,0,0,3,305,1,leading/trailing,01,4,80,2,7,1,1.02,0,0,2,305,1,leading/trailing,01,1,95,1,6,1,0.986,0,0,2,305,1,IN/Out,01,1,49,1,3,1,0.993,0,0,2,305,1,IN/Out,01,4,80,2,6,1,0.831,0,0,2,305,1,leading/trailing,00,1,89,3,2,1,0.972,0,0,3,305,1,IN/Out,01,2,7,1,6,1,0.85,0,0,2,305,1,IN/Out,01,2,10,2,4,1,0.735,0,0,2,305,1,IN/Out,01,2,317,3,7,1,0.913,0,0,3,305,1,IN/Out,01,2,1,1,7,1,0.786,0,0,2,305,1,IN/Out,00,4,430,3,1,1,1.68,0,0,3,305,1,leading/trailing,01,3,66,1,6,1,0.619,0,0,3,305,1,leading/trailing,00,1,460,2,2,1,0.882,0,0,3,305,1,IN/Out,01,3,7,1,4,1,0.676,0,0,2,305,1,leading/trailing,00,3,9,1,1,1,0.721,0,0,2,305,1,leading/trailing,01,1,48,2,3,1,0.804,0,0,2,305,1,IN/Out,00,3,3,1,1,1,0.666,0,0,2,305,1,leading/trailing,01,3,5,1,6,1,0.701,0,0,2,305,1,leading/trailing,00,1,81,1,2,1,0.816,0,0,2,305,1,IN/Out,01,4,950,3,4,1,0.745,0,0,3,305,1,leading/trailing,01,4,30,2,4,1,0.591,0,0,2,305,1,leading/trailing,01,1,72,1,3,1,0.767,0,0,2,305,1,IN/Out,01,4,40,2,6,1,0.893,0,0,2,305,1,leading/trailing,01,2,96,2,5,1,0.561,0,0,2,305,1,IN/Out,00,2,74,2,1,1,1.13,0,0,2,305,1,IN/Out,01,2,937,3,7,0,1.02,0,0,3,305,1,IN/Out,01,4,30,2,4,1,0.68,0,0,2,305,1,leading/trailing,01,2,973,2,7,1,0.922,0,0,3,305,1,IN/Out,00,3,8,1,1,1,0.858,0,0,2,305,1,leading/trailing,01,3,9,1,4,1,1.45,0,0,2,305,1,leading/trailing,01,1,35,2,3,1,0.696,0,0,3,305,1,IN/Out,00,2,613,2,1,1,0.764,0,0,3,305,1,IN/Out,01,3,11,1,7,1,0.995,0,0,3,305,1,leading/trailing,00,1,26,2,2,1,0.584,0,0,2,305,1,IN/Out,01,4,890,3,4,1,0.568,0,0,3,305,1,leading/trailing,00,4,730,3,1,1,0.576,0,0,3,305,1,leading/trailing,01,3,78,1,4,1,0.821,0,0,3,305,1,leading/trailing,01,1,28,2,4,1,0.518,0,0,2,305,1,IN/Out,01,1,13,2,3,1,0.559,0,0,2,305,1,IN/Out,00,4,30,2,1,0,0.781,0,0,2,305,1,leading/trailing,01,3,8,1,4,1,0.558,0,0,2,305,1,leading/trailing,01,2,562,2,5,1,0.653,0,0,3,305,1,IN/Out,01,4,70,2,5,1,0.808,0,0,2,305,1,leading/trailing,01,3,22,1,4,1,0.629,0,0,3,305,1,leading/trailing,01,1,475,1,6,1,0.836,0,0,3,305,1,IN/Out,01,4,20,2,6,1,0.657,0,0,2,305,1,leading/trailing,00,3,12,1,1,1,1.31,0,0,3,305,1,leading/trailing,01,2,695,3,5,1,1.15,0,0,3,305,1,IN/Out,01,4,570,3,5,1,0.801,0,0,3,305,1,leading/trailing,00,4,70,2,1,1,0.728,0,0,2,305,1,leading/trailing,01,2,61,1,6,1,0.771,0,0,2,305,1,IN/Out,01,3,56,1,6,1,0.905,0,0,3,305,1,leading/trailing,00,3,1,1,1,0,0.699,0,0,2,305,1,leading/trailing,00,3,91,1,1,1,0.567,0,0,3,305,1,leading/trailing,01,2,675,3,5,1,1.3,0,0,3,305,1,IN/Out,01,3,64,1,7,1,0.958,0,0,3,305,1,leading/trailing,01,3,57,1,7,1,0.78,0,0,3,305,1,leading/trailing,00,1,840,1,2,1,0.812,0,0,3,305,1,IN/Out,01,4,30,2,4,1,1.03,0,0,2,305,1,leading/trailing,01,4,630,3,5,1,0.591,0,0,3,305,1,leading/trailing,01,2,456,2,5,1,0.811,0,0,3,305,1,IN/Out,01,3,1,1,7,1,0.988,0,0,2,305,1,leading/trailing,01,3,45,1,4,0,0.896,0,0,3,305,1,leading/trailing,01,4,170,3,6,1,1.05,0,0,3,305,1,leading/trailing,01,4,40,2,7,1,0.807,0,0,2,305,1,leading/trailing,01,4,620,3,5,1,1.68,0,0,3,305,1,leading/trailing,00,1,29,2,2,1,0.565,0,0,2,305,1,IN/Out,01,1,975,1,4,1,0.843,0,0,3,305,1,IN/Out,01,1,574,2,3,1,0.729,0,0,3,305,1,IN/Out,00,2,651,3,1,1,0.658,0,0,3,305,1,IN/Out,01,1,933,3,4,1,0.766,0,0,3,305,1,IN/Out,01,4,530,3,6,1,0.979,0,0,3,305,1,leading/trailing,01,2,1,2,5,1,0.604,0,0,2,305,1,IN/Out,00,2,18,1,1,1,1.43,0,0,2,305,1,IN/Out,01,1,693,2,6,1,0.796,0,0,3,305,1,IN/Out,01,4,360,3,4,1,0.609,0,0,3,305,1,leading/trailing,01,2,48,2,7,1,1.26,0,0,2,305,1,IN/Out,01,3,5,1,5,1,0.786,0,0,2,305,1,leading/trailing,00,1,87,1,2,1,0.729,0,0,2,305,1,IN/Out,01,3,58,1,4,1,0.667,0,0,3,305,1,leading/trailing,01,1,14,2,3,1,0.67,0,0,3,305,1,IN/Out,01,1,1,2,3,1,0.593,0,0,2,305,1,IN/Out,00,2,727,2,1,1,1.03,0,0,3,305,1,IN/Out,01,1,73,2,4,1,0.837,0,0,2,305,1,IN/Out,01,3,3,1,4,1,0.712,0,0,2,305,1,leading/trailing,01,1,91,1,3,1,0.664,0,0,2,305,1,IN/Out,01,2,28,2,7,1,0.999,0,0,2,305,1,IN/Out,01,3,3,1,7,1,0.995,0,0,2,305,1,leading/trailing,01,2,70,2,7,1,0.61,0,0,2,305,1,IN/Out,01,2,483,3,7,1,0.96,0,0,3,305,1,IN/Out,01,2,388,2,7,1,0.676,0,0,3,305,1,IN/Out,01,1,12,2,3,1,0.929,0,0,2,305,1,IN/Out,01,4,270,3,4,1,0.617,0,0,3,305,1,leading/trailing,01,2,13,1,6,1,0.864,0,0,2,305,1,IN/Out,01,3,3,1,5,1,0.643,0,0,2,305,1,leading/trailing,00,2,94,2,1,1,0.709,0,0,2,305,1,IN/Out,01,3,6,1,4,0,0.517,0,0,2,305,1,leading/trailing,01,4,260,3,6,1,0.913,0,0,3,305,1,leading/trailing,01,1,45,2,6,1,1.34,0,0,3,305,1,IN/Out,01,2,372,3,7,1,0.611,0,0,3,305,1,IN/Out,00,2,80,2,1,1,0.76,0,0,2,305,1,IN/Out,01,4,760,3,5,1,0.895,0,0,3,305,1,leading/trailing,01,4,20,2,7,1,0.921,0,0,2,305,1,leading/trailing,00,4,270,3,1,0,1.59,0,0,3,305,1,leading/trailing,00,3,99,1,1,1,1.14,0,0,3,305,1,leading/trailing,01,3,37,1,6,1,1.01,0,0,3,305,1,leading/trailing,01,3,7,1,7,0,1.01,0,0,2,305,1,leading/trailing,01,2,861,2,7,1,1.56,0,0,3,305,1,IN/Out,01,1,460,1,6,1,1.48,0,0,3,305,1,IN/Out,01,3,53,1,6,1,0.713,0,0,3,305,1,leading/trailing,01,2,74,1,7,1,0.948,0,0,2,305,1,IN/Out,01,2,88,2,7,1,0.698,0,0,2,305,1,IN/Out,01,1,160,2,3,1,0.834,0,0,3,305,1,IN/Out,01,2,707,1,6,1,0.942,0,0,3,305,1,IN/Out,00,4,280,3,1,1,0.68,0,0,3,305,1,leading/trailing,00,4,10,2,1,1,1.61,0,0,2,305,1,leading/trailing,00,2,18,1,1,1,1.05,0,0,3,305,1,IN/Out,01,4,50,2,5,1,0.922,0,0,2,305,1,leading/trailing,01,1,988,2,5,1,0.604,0,0,3,305,1,IN/Out,00,1,89,2,2,1,2.85,0,0,2,306,1,IN/Out,11,1,753,3,4,1,1.39,0,0,3,306,1,IN/Out,11,1,82,2,4,1,1.19,0,0,2,306,1,IN/Out,10,4,430,3,1,1,0.905,0,0,3,306,1,leading/trailing,11,4,90,2,4,1,1,0,0,2,306,1,leading/trailing,11,2,69,1,6,1,0.77,0,0,2,306,1,IN/Out,11,4,30,2,6,1,1.11,0,0,2,306,1,leading/trailing,11,1,786,3,3,1,0.612,0,0,3,306,1,IN/Out,10,4,230,3,1,1,0.867,0,0,3,306,1,leading/trailing,11,1,41,3,3,1,0.575,0,0,3,306,1,IN/Out,11,2,63,1,5,1,1.21,0,0,2,306,1,IN/Out,11,3,8,1,5,1,0.708,0,0,2,306,1,leading/trailing,11,4,720,3,5,1,0.67,0,0,3,306,1,leading/trailing,11,1,234,2,4,1,0.658,0,0,3,306,1,IN/Out,11,4,920,3,4,1,0.637,0,0,3,306,1,leading/trailing,11,1,296,1,3,1,1.07,0,0,3,306,1,IN/Out,11,4,860,3,6,1,1.05,0,0,3,306,1,leading/trailing,11,2,35,2,5,1,1.02,0,0,2,306,1,IN/Out,10,1,276,3,2,1,0.657,0,0,3,306,1,IN/Out,11,1,32,1,3,1,0.519,0,0,2,306,1,IN/Out,10,2,820,3,1,1,0.517,0,0,3,306,1,IN/Out,10,3,3,1,1,1,0.953,0,0,2,306,1,leading/trailing,11,2,817,3,7,1,1.26,0,0,3,306,1,IN/Out,11,3,4,1,6,1,1.13,0,0,2,306,1,leading/trailing,11,2,36,2,5,1,1.3,0,0,2,306,1,IN/Out,11,2,16,2,5,1,0.912,0,0,2,306,1,IN/Out,10,1,64,1,2,1,0.793,0,0,2,306,1,IN/Out,11,4,60,2,5,1,0.678,0,0,2,306,1,leading/trailing,11,3,2,1,4,1,0.58,0,0,2,306,1,leading/trailing,11,1,38,2,5,1,0.519,0,0,2,306,1,IN/Out,11,2,158,2,4,1,0.694,0,0,3,306,1,IN/Out,11,4,730,3,7,1,0.649,0,0,3,306,1,leading/trailing,11,4,10,2,7,1,0.846,0,0,2,306,1,leading/trailing,11,2,427,2,7,1,0.962,0,0,3,306,1,IN/Out,11,4,30,2,4,1,0.518,0,0,2,306,1,leading/trailing,10,1,756,3,2,1,0.86,0,0,3,306,1,IN/Out,11,1,787,2,4,1,0.895,0,0,3,306,1,IN/Out,11,3,27,1,7,1,1.13,0,0,3,306,1,leading/trailing,11,4,440,3,7,1,1.17,0,0,3,306,1,leading/trailing,11,2,59,1,7,1,0.639,0,0,2,306,1,IN/Out,10,3,55,1,1,1,1.67,0,0,3,306,1,leading/trailing,11,2,76,2,7,1,0.884,0,0,2,306,1,IN/Out,10,2,36,1,1,1,0.638,0,0,2,306,1,IN/Out,11,2,803,2,6,1,1.11,0,0,3,306,1,IN/Out,11,2,68,1,5,1,1.2,0,0,2,306,1,IN/Out,11,3,99,1,6,1,1.05,0,0,3,306,1,leading/trailing,10,2,6,1,1,1,0.543,0,0,2,306,1,IN/Out,11,2,3,1,7,1,1.16,0,0,2,306,1,IN/Out,11,3,9,1,6,1,0.677,0,0,2,306,1,leading/trailing,11,3,3,1,7,1,0.792,0,0,2,306,1,leading/trailing,11,3,3,1,7,1,0.638,0,0,2,306,1,leading/trailing,11,4,850,3,7,1,1.33,0,0,3,306,1,leading/trailing,10,2,25,1,1,1,0.573,0,0,2,306,1,IN/Out,11,4,30,2,7,1,0.962,0,0,2,306,1,leading/trailing,11,4,90,2,4,1,0.825,0,0,2,306,1,leading/trailing,11,1,89,2,5,1,1.08,0,0,2,306,1,IN/Out,11,4,510,3,5,1,1.05,0,0,3,306,1,leading/trailing,11,2,45,2,6,1,1.38,0,0,2,306,1,IN/Out,11,2,305,2,4,1,0.576,0,0,3,306,1,IN/Out,11,2,133,1,7,1,0.782,0,0,3,306,1,IN/Out,10,3,4,1,1,1,1.78,0,0,2,306,1,leading/trailing,11,4,10,2,5,1,0.85,0,0,2,306,1,leading/trailing,11,4,20,2,5,1,1.02,0,0,2,306,1,leading/trailing,10,2,609,2,1,1,0.563,0,0,3,306,1,IN/Out,11,4,570,3,4,1,0.883,0,0,3,306,1,leading/trailing,10,4,850,3,1,1,2.3,0,0,3,306,1,leading/trailing,11,4,890,3,6,0,1.04,0,0,3,306,1,leading/trailing,11,2,66,1,5,1,1.62,0,0,2,306,1,IN/Out,11,1,936,2,3,1,0.731,0,0,3,306,1,IN/Out,10,3,5,1,1,1,1.33,0,0,2,306,1,leading/trailing,10,2,38,1,1,1,2.11,0,0,3,306,1,IN/Out,11,3,76,1,4,1,1.49,0,0,3,306,1,leading/trailing,10,3,34,1,1,1,0.683,0,0,3,306,1,leading/trailing,10,3,12,1,1,1,0.615,0,0,3,306,1,leading/trailing,11,3,63,1,5,1,1.12,0,0,3,306,1,leading/trailing,10,4,60,2,1,1,0.596,0,0,2,306,1,leading/trailing,11,1,379,2,3,1,0.617,0,0,3,306,1,IN/Out,11,4,340,3,5,1,0.655,0,0,3,306,1,leading/trailing,10,3,29,1,1,1,0.852,0,0,3,306,1,leading/trailing,11,2,204,2,4,1,0.631,0,0,3,306,1,IN/Out,11,3,4,1,6,1,1.5,0,0,2,306,1,leading/trailing,11,2,73,1,7,1,0.877,0,0,2,306,1,IN/Out,11,3,25,1,6,1,1.8,0,0,3,306,1,leading/trailing,11,1,9,2,3,1,0.693,0,0,2,306,1,IN/Out,11,1,82,2,3,1,0.519,0,0,2,306,1,IN/Out,10,1,90,1,2,1,0.799,0,0,2,306,1,IN/Out,10,4,490,3,1,1,0.935,0,0,3,306,1,leading/trailing,11,4,10,2,4,1,0.752,0,0,2,306,1,leading/trailing,11,3,49,1,5,1,1.18,0,0,3,306,1,leading/trailing,11,2,462,2,6,1,0.957,0,0,3,306,1,IN/Out,11,1,148,2,6,1,0.866,0,0,3,306,1,IN/Out,11,2,332,3,6,1,0.966,0,0,3,306,1,IN/Out,10,4,10,2,1,1,1.24,0,0,2,306,1,leading/trailing,10,2,428,1,1,1,0.841,0,0,3,306,1,IN/Out,11,1,3,2,4,1,1.18,0,0,2,306,1,IN/Out,10,3,7,1,1,1,0.793,0,0,2,306,1,leading/trailing,11,4,550,3,6,1,0.878,0,0,3,306,1,leading/trailing,11,4,130,3,6,1,0.784,0,0,3,306,1,leading/trailing,11,3,19,1,7,1,1.06,0,0,3,306,1,leading/trailing,11,3,83,1,4,1,0.796,0,0,3,306,1,leading/trailing,11,2,574,1,5,1,2.74,0,0,3,306,1,IN/Out,11,1,519,3,5,1,2.03,0,0,3,306,1,IN/Out,10,2,36,1,1,1,1.57,0,0,2,306,1,IN/Out,11,1,66,1,3,0,0.653,0,0,2,306,1,IN/Out,10,1,307,3,2,1,1.43,0,0,3,306,1,IN/Out,11,1,40,1,3,1,1.28,0,0,2,306,1,IN/Out,11,3,38,1,7,1,1.04,0,0,3,306,1,leading/trailing,11,1,48,1,3,1,0.738,0,0,2,306,1,IN/Out,11,3,29,1,4,0,0.74,0,0,3,306,1,leading/trailing,11,3,5,1,7,1,1.5,0,0,2,306,1,leading/trailing,10,4,70,2,1,1,0.79,0,0,2,306,1,leading/trailing,11,1,533,2,5,1,1.53,0,0,3,306,1,IN/Out,10,4,50,2,1,1,0.931,0,0,2,306,1,leading/trailing,11,2,884,1,7,1,1.01,0,0,3,306,1,IN/Out,11,3,7,1,6,1,0.962,0,0,2,306,1,leading/trailing,11,1,37,1,4,1,1.02,0,0,2,306,1,IN/Out,11,3,3,1,7,1,1.16,0,0,2,306,1,leading/trailing,11,3,9,1,4,1,0.611,0,0,2,306,1,leading/trailing,11,3,83,1,7,1,1.67,0,0,3,306,1,leading/trailing,11,3,7,1,6,1,0.995,0,0,2,306,1,leading/trailing,11,4,40,2,4,1,0.593,0,0,2,306,1,leading/trailing,11,4,20,2,5,1,1.43,0,0,2,306,1,leading/trailing,11,1,979,1,5,1,2.63,0,0,3,306,1,IN/Out,11,3,98,1,6,1,1.1,0,0,3,306,1,leading/trailing,10,1,64,1,2,1,0.837,0,0,2,306,1,IN/Out,11,2,435,3,6,1,1.04,0,0,3,306,1,IN/Out,11,1,39,1,4,1,0.637,0,0,2,306,1,IN/Out,10,1,788,2,2,1,0.746,0,0,3,306,1,IN/Out,11,2,565,1,7,1,3.12,0,0,3,307,1,IN/Out,01,4,140,3,6,1,2.34,0,0,3,307,1,leading/trailing,00,1,847,3,2,1,1.86,0,0,3,307,1,IN/Out,01,3,9,1,5,1,2.25,0,0,2,307,1,leading/trailing,01,1,32,1,3,1,3,0,0,2,307,1,IN/Out,00,3,8,1,1,1,1.77,0,0,2,307,1,leading/trailing,01,4,40,2,4,1,1.92,0,0,2,307,1,leading/trailing,01,4,30,2,5,1,2.88,0,0,2,307,1,leading/trailing,01,4,30,2,4,1,2.18,0,0,2,307,1,leading/trailing,01,3,4,1,5,1,2.72,0,0,2,307,1,leading/trailing,00,1,952,2,2,1,2.16,0,0,3,307,1,IN/Out,00,2,83,2,1,1,2.53,0,0,2,307,1,IN/Out,00,3,24,1,1,1,1.61,0,0,3,307,1,leading/trailing,01,1,199,3,5,1,1.86,0,0,3,307,1,IN/Out,00,4,90,2,1,1,2.44,0,0,2,307,1,leading/trailing,01,1,226,1,3,1,2.71,0,0,3,307,1,IN/Out,01,4,90,2,7,1,1.26,0,0,2,307,1,leading/trailing,01,1,26,1,3,1,2.22,0,0,2,307,1,IN/Out,01,1,43,3,4,1,2.54,0,0,3,307,1,IN/Out,01,3,22,1,4,1,3.75,0,0,3,307,1,leading/trailing,01,1,120,1,3,1,2.59,0,0,3,307,1,IN/Out,01,4,120,3,4,1,2,0,0,3,307,1,leading/trailing,01,4,70,2,7,1,1.64,0,0,2,307,1,leading/trailing,01,2,652,2,5,1,3.2,0,0,3,307,1,IN/Out,01,2,577,1,6,1,2.32,0,0,3,307,1,IN/Out,01,1,8,2,5,1,2.53,0,0,2,307,1,IN/Out,01,3,4,1,6,1,1.49,0,0,2,307,1,leading/trailing,01,4,350,3,4,1,3.31,0,0,3,307,1,leading/trailing,01,2,78,1,6,1,2.56,0,0,2,307,1,IN/Out,00,4,20,2,1,1,1.57,0,0,2,307,1,leading/trailing,01,3,45,1,7,1,1.74,0,0,3,307,1,leading/trailing,01,3,24,1,6,1,3.09,0,0,3,307,1,leading/trailing,00,3,1,1,1,1,1.76,0,0,2,307,1,leading/trailing,01,4,230,3,6,1,2.26,0,0,3,307,1,leading/trailing,01,2,804,2,7,1,1.38,0,0,3,307,1,IN/Out,00,4,160,3,1,1,2.53,0,0,3,307,1,leading/trailing,01,2,391,3,5,1,1.34,0,0,3,307,1,IN/Out,01,1,966,2,3,1,1.19,0,0,3,307,1,IN/Out,01,2,92,1,4,1,1.1,0,0,3,307,1,IN/Out,00,1,63,1,2,1,1.54,0,0,2,307,1,IN/Out,00,3,76,1,1,1,0.939,0,0,3,307,1,leading/trailing,01,3,6,1,7,1,1.29,0,0,2,307,1,leading/trailing,00,4,350,3,1,1,1.13,0,0,3,307,1,leading/trailing,01,2,28,1,6,1,1.57,0,0,2,307,1,IN/Out,01,1,49,2,6,1,1.11,0,0,2,307,1,IN/Out,01,3,82,1,6,1,1.29,0,0,3,307,1,leading/trailing,01,3,5,1,7,1,0.974,0,0,2,307,1,leading/trailing,00,1,71,2,2,1,1.17,0,0,3,307,1,IN/Out,01,2,45,2,5,1,1.01,0,0,2,307,1,IN/Out,01,3,19,1,7,1,2.43,0,0,3,307,1,leading/trailing,01,2,89,1,7,1,1.32,0,0,2,307,1,IN/Out,00,4,90,2,1,1,1.94,0,0,2,307,1,leading/trailing,01,4,560,3,4,1,2.08,0,0,3,307,1,leading/trailing,00,1,48,2,2,1,1.01,0,0,2,307,1,IN/Out,01,3,38,1,5,1,1.49,0,0,3,307,1,leading/trailing,01,2,34,1,7,1,1.23,0,0,2,307,1,IN/Out,01,1,71,2,4,1,1.03,0,0,3,307,1,IN/Out,01,4,10,2,5,1,0.861,0,0,2,307,1,leading/trailing,01,4,30,2,7,1,1.08,0,0,2,307,1,leading/trailing,01,3,22,1,5,1,1.31,0,0,3,307,1,leading/trailing,01,4,850,3,6,1,3.8,0,0,3,307,1,leading/trailing,01,3,4,1,4,1,0.942,0,0,2,307,1,leading/trailing,01,3,2,1,4,1,0.822,0,0,2,307,1,leading/trailing,00,2,39,1,1,1,1.11,0,0,2,307,1,IN/Out,01,4,950,3,4,1,1.99,0,0,3,307,1,leading/trailing,00,4,610,3,1,1,1.02,0,0,3,307,1,leading/trailing,01,3,25,1,6,1,1.43,0,0,3,307,1,leading/trailing,01,2,75,2,5,1,1.57,0,0,2,307,1,IN/Out,01,3,7,1,4,1,1.37,0,0,2,307,1,leading/trailing,00,1,49,2,2,1,1.29,0,0,2,307,1,IN/Out,01,1,49,2,3,1,1.23,0,0,3,307,1,IN/Out,01,1,23,1,3,1,1.15,0,0,2,307,1,IN/Out,01,4,80,2,5,1,1.01,0,0,2,307,1,leading/trailing,01,3,52,1,6,1,1.11,0,0,3,307,1,leading/trailing,01,2,313,3,7,1,1.43,0,0,3,307,1,IN/Out,01,1,564,3,3,1,0.919,0,0,3,307,1,IN/Out,01,4,80,2,4,1,0.832,0,0,2,307,1,leading/trailing,01,1,121,1,3,1,1.02,0,0,3,307,1,IN/Out,01,4,180,3,7,1,1.72,0,0,3,307,1,leading/trailing,01,3,5,1,6,1,1.31,0,0,2,307,1,leading/trailing,00,2,172,3,1,1,1.35,0,0,3,307,1,IN/Out,01,3,8,1,4,1,1.4,0,0,2,307,1,leading/trailing,00,4,910,3,1,1,1.29,0,0,3,307,1,leading/trailing,01,2,6,1,7,1,1.74,0,0,2,307,1,IN/Out,01,1,46,1,4,1,1.21,0,0,2,307,1,IN/Out,01,4,580,3,6,1,2.38,0,0,3,307,1,leading/trailing,01,3,8,1,5,1,1.3,0,0,2,307,1,leading/trailing,01,3,12,1,7,1,1.49,0,0,3,307,1,leading/trailing,01,1,47,1,6,1,1.59,0,0,2,307,1,IN/Out,01,1,56,2,3,1,0.931,0,0,2,307,1,IN/Out,01,4,350,3,6,1,2.1,0,0,3,307,1,leading/trailing,01,2,943,3,7,1,2.52,0,0,3,307,1,IN/Out,00,3,43,1,1,1,0.939,0,0,3,307,1,leading/trailing,00,2,615,2,1,1,0.731,0,0,3,307,1,IN/Out,01,2,768,2,6,1,1.82,0,0,3,307,1,IN/Out,01,2,175,3,7,1,1.32,0,0,3,307,1,IN/Out,00,3,3,1,1,1,1.05,0,0,2,307,1,leading/trailing,01,1,734,1,3,1,1.16,0,0,3,307,1,IN/Out,01,2,516,1,7,1,1.4,0,0,3,307,1,IN/Out,01,2,984,2,7,1,1.25,0,0,3,307,1,IN/Out,00,4,20,2,1,1,1.58,0,0,2,307,1,leading/trailing,01,4,140,3,6,1,1.32,0,0,3,307,1,leading/trailing,01,2,1,1,7,1,0.903,0,0,2,307,1,IN/Out,01,1,943,3,3,1,0.913,0,0,3,307,1,IN/Out,01,2,33,2,7,1,1.28,0,0,2,307,1,IN/Out,01,4,410,3,6,1,0.94,0,0,3,307,1,leading/trailing,01,1,96,1,3,1,1.24,0,0,2,307,1,IN/Out,01,4,20,2,6,1,0.945,0,0,2,307,1,leading/trailing,00,3,82,1,1,1,1.09,0,0,3,307,1,leading/trailing,00,2,26,1,1,1,0.897,0,0,2,307,1,IN/Out,01,1,22,1,3,1,0.838,0,0,2,307,1,IN/Out,00,2,136,1,1,1,1.55,0,0,3,307,1,IN/Out,00,2,19,1,1,1,1.05,0,0,2,307,1,IN/Out,01,3,69,1,5,1,3.09,0,0,3,307,1,leading/trailing,00,1,29,2,2,1,1.92,0,0,2,307,1,IN/Out,00,1,863,2,2,1,1.45,0,0,3,307,1,IN/Out,01,3,36,1,4,1,1.2,0,0,3,307,1,leading/trailing,01,2,59,1,4,1,1.12,0,0,2,307,1,IN/Out,01,1,602,3,4,1,3.5,0,0,3,307,1,IN/Out,00,2,496,1,1,1,0.829,0,0,3,307,1,IN/Out,01,2,97,2,7,1,0.888,0,0,2,307,1,IN/Out,00,3,9,1,1,1,1.77,0,0,2,307,1,leading/trailing,01,3,7,1,5,1,0.984,0,0,2,307,1,leading/trailing,01,1,17,2,4,1,0.999,0,0,2,307,1,IN/Out,01,1,72,2,3,1,0.925,0,0,2,307,1,IN/Out,01,4,20,2,5,1,0.74,0,0,2,307,1,leading/trailing,01,2,83,1,7,1,1.63,0,0,2,307,1,IN/Out,01,4,90,2,4,1,1.6,0,0,2,307,1,leading/trailing,01,4,80,2,6,1,2.36,0,0,2,308,1,leading/trailing,01,3,3,1,6,1,1.13,0,0,2,308,1,leading/trailing,01,4,970,3,5,1,2.37,0,0,3,308,1,leading/trailing,00,2,480,3,1,1,1.22,0,0,3,308,1,IN/Out,01,3,13,1,6,1,1.42,0,0,3,308,1,leading/trailing,00,2,237,2,1,1,2.16,0,0,3,308,1,IN/Out,01,4,70,2,5,1,0.989,0,0,2,308,1,leading/trailing,01,1,86,1,3,1,0.788,0,0,2,308,1,IN/Out,01,2,18,1,5,1,0.766,0,0,2,308,1,IN/Out,01,4,430,3,7,1,0.885,0,0,3,308,1,leading/trailing,00,1,95,3,2,1,1.49,0,0,3,308,1,IN/Out,01,3,25,1,7,1,1.06,0,0,3,308,1,leading/trailing,01,2,789,2,7,1,0.947,0,0,3,308,1,IN/Out,01,2,19,1,7,1,0.719,0,0,2,308,1,IN/Out,01,3,61,1,6,1,0.904,0,0,3,308,1,leading/trailing,01,1,30,1,3,1,0.924,0,0,2,308,1,IN/Out,01,3,8,1,7,1,1.11,0,0,2,308,1,leading/trailing,01,2,16,1,7,1,0.883,0,0,2,308,1,IN/Out,01,3,8,1,5,1,1.04,0,0,2,308,1,leading/trailing,01,4,370,3,5,1,1.47,0,0,3,308,1,leading/trailing,00,3,94,1,1,1,2.18,0,0,3,308,1,leading/trailing,00,1,46,2,2,1,0.763,0,0,2,308,1,IN/Out,00,4,60,2,1,1,1,0,0,2,308,1,leading/trailing,01,4,80,2,5,1,1.2,0,0,2,308,1,leading/trailing,00,2,93,2,1,1,0.883,0,0,2,308,1,IN/Out,01,4,740,3,7,1,1.26,0,0,3,308,1,leading/trailing,01,3,27,1,4,1,1.26,0,0,3,308,1,leading/trailing,01,3,5,1,7,1,1.34,0,0,2,308,1,leading/trailing,00,4,920,3,1,1,1.32,0,0,3,308,1,leading/trailing,01,2,46,2,6,1,1.05,0,0,2,308,1,IN/Out,01,3,2,1,4,1,0.764,0,0,2,308,1,leading/trailing,01,4,70,2,6,1,0.789,0,0,2,308,1,leading/trailing,01,4,450,3,6,1,0.885,0,0,3,308,1,leading/trailing,01,2,220,2,7,1,1.05,0,0,3,308,1,IN/Out,01,4,70,2,4,1,0.727,0,0,2,308,1,leading/trailing,01,3,5,1,5,1,0.85,0,0,2,308,1,leading/trailing,01,2,231,3,6,1,1.27,0,0,3,308,1,IN/Out,00,1,61,1,2,1,0.813,0,0,2,308,1,IN/Out,01,3,1,1,5,1,1.01,0,0,2,308,1,leading/trailing,01,3,54,1,6,1,0.932,0,0,3,308,1,leading/trailing,01,1,494,3,6,1,0.951,0,0,3,308,1,IN/Out,01,4,60,2,4,1,0.815,0,0,2,308,1,leading/trailing,01,1,98,1,5,1,0.854,0,0,2,308,1,IN/Out,01,1,104,3,6,1,0.763,0,0,3,308,1,IN/Out,01,1,70,1,3,1,1.15,0,0,2,308,1,IN/Out,00,2,215,1,1,1,1.92,0,0,3,308,1,IN/Out,01,2,73,1,7,1,1.49,0,0,2,308,1,IN/Out,01,1,16,2,3,1,0.884,0,0,2,308,1,IN/Out,01,3,58,1,7,1,0.99,0,0,3,308,1,leading/trailing,01,2,53,1,5,1,0.879,0,0,2,308,1,IN/Out,01,2,905,3,7,1,1.69,0,0,3,308,1,IN/Out,00,2,33,1,1,1,1.9,0,0,2,308,1,IN/Out,01,1,32,1,4,1,1.8,0,0,2,308,1,IN/Out,00,1,820,1,2,1,1.22,0,0,3,308,1,IN/Out,01,1,733,2,5,1,0.754,0,0,3,308,1,IN/Out,00,1,60,1,2,1,0.763,0,0,2,308,1,IN/Out,00,4,240,3,1,1,0.915,0,0,3,308,1,leading/trailing,01,2,192,1,7,1,1.57,0,0,3,308,1,IN/Out,00,4,230,3,1,1,1.84,0,0,3,308,1,leading/trailing,01,1,506,3,3,1,0.961,0,0,3,308,1,IN/Out,00,3,5,1,1,1,0.922,0,0,2,308,1,leading/trailing,01,3,2,1,5,1,1.11,0,0,2,308,1,leading/trailing,00,1,47,2,2,1,1.33,0,0,2,308,1,IN/Out,01,2,90,2,4,1,1.19,0,0,2,308,1,IN/Out,01,3,6,1,5,1,1.17,0,0,2,308,1,leading/trailing,01,3,58,1,4,1,1.02,0,0,3,308,1,leading/trailing,01,1,22,3,4,1,1.43,0,0,3,308,1,IN/Out,01,1,98,1,3,1,0.8,0,0,2,308,1,IN/Out,01,1,665,1,3,1,0.884,0,0,3,308,1,IN/Out,01,1,521,2,4,1,1.37,0,0,3,308,1,IN/Out,01,4,40,2,7,1,1.38,0,0,2,308,1,leading/trailing,00,4,40,2,1,1,0.991,0,0,2,308,1,leading/trailing,00,3,89,1,1,1,0.997,0,0,3,308,1,leading/trailing,01,1,47,2,4,1,0.965,0,0,2,308,1,IN/Out,00,4,40,2,1,1,0.861,0,0,2,308,1,leading/trailing,01,2,86,2,5,1,1.17,0,0,2,308,1,IN/Out,01,3,4,1,5,1,1.19,0,0,2,308,1,leading/trailing,00,4,660,3,1,1,0.92,0,0,3,308,1,leading/trailing,01,1,242,1,3,1,1.01,0,0,3,308,1,IN/Out,01,3,8,1,6,1,1.26,0,0,2,308,1,leading/trailing,00,3,89,1,1,1,1.63,0,0,3,308,1,leading/trailing,01,4,490,3,4,1,0.97,0,0,3,308,1,leading/trailing,01,4,40,2,4,1,0.856,0,0,2,308,1,leading/trailing,01,4,70,2,5,1,0.94,0,0,2,308,1,leading/trailing,01,4,60,2,7,1,0.743,0,0,2,308,1,leading/trailing,01,3,23,1,4,0,0.814,0,0,3,308,1,leading/trailing,01,3,43,1,7,1,1.24,0,0,3,308,1,leading/trailing,01,1,133,2,5,1,1.36,0,0,3,308,1,IN/Out,01,3,49,1,6,1,0.909,0,0,3,308,1,leading/trailing,01,4,20,2,7,1,0.912,0,0,2,308,1,leading/trailing,01,2,352,2,5,1,1.25,0,0,3,308,1,IN/Out,01,2,97,2,7,1,0.861,0,0,2,308,1,IN/Out,01,4,570,3,4,1,1.22,0,0,3,308,1,leading/trailing,01,1,641,1,3,1,0.885,0,0,3,308,1,IN/Out,01,1,353,3,5,1,3.28,0,0,3,308,1,IN/Out,01,2,737,1,7,1,1.27,0,0,3,308,1,IN/Out,00,3,53,1,1,1,1.54,0,0,3,308,1,leading/trailing,01,1,119,1,3,1,2.72,0,0,3,308,1,IN/Out,01,2,39,1,7,1,1.55,0,0,2,308,1,IN/Out,00,3,5,1,1,1,0.878,0,0,2,308,1,leading/trailing,01,4,60,2,6,0,1.01,0,0,2,308,1,leading/trailing,00,1,534,1,2,1,2.51,0,0,3,308,1,IN/Out,01,2,637,3,6,1,1.06,0,0,3,308,1,IN/Out,00,3,1,1,1,1,1.16,0,0,2,308,1,leading/trailing,01,2,356,1,7,1,2.39,0,0,3,308,1,IN/Out,01,2,28,2,7,1,0.869,0,0,2,308,1,IN/Out,00,3,7,1,1,1,1.03,0,0,2,308,1,leading/trailing,01,3,27,1,5,1,1.99,0,0,3,308,1,leading/trailing,01,1,27,1,3,1,0.719,0,0,2,308,1,IN/Out,01,4,580,3,6,1,1.12,0,0,3,308,1,leading/trailing,01,3,6,1,5,1,0.896,0,0,2,308,1,leading/trailing,00,1,960,1,2,1,1.63,0,0,3,308,1,IN/Out,01,2,6,2,6,1,1.07,0,0,2,308,1,IN/Out,00,2,90,2,1,0,0.813,0,0,2,308,1,IN/Out,01,4,940,3,6,1,2,0,0,3,308,1,leading/trailing,00,2,41,1,1,1,1.17,0,0,2,308,1,IN/Out,01,4,440,3,4,1,1.34,0,0,3,308,1,leading/trailing,01,3,89,1,7,1,1,0,0,3,308,1,leading/trailing,01,1,17,2,4,1,1.03,0,0,2,308,1,IN/Out,01,4,660,3,4,1,0.695,0,0,3,308,1,leading/trailing,01,4,310,3,6,1,0.937,0,0,3,308,1,leading/trailing,01,1,22,1,3,1,1.48,0,0,2,308,1,IN/Out,01,2,18,1,6,1,1.15,0,0,3,308,1,IN/Out,01,2,322,2,6,1,1.2,0,0,3,308,1,IN/Out,01,2,668,2,5,1,1.31,0,0,3,308,1,IN/Out,00,4,60,2,1,1,1.19,0,0,2,308,1,leading/trailing,01,1,56,2,3,1,1.1,0,0,2,308,1,IN/Out,00,2,630,2,1,1,1.64,0,0,3,308,1,IN/Out,01,4,80,2,7,1,4.24,0,0,2,309,1,leading/trailing,01,4,20,2,7,1,3.18,0,0,2,309,1,leading/trailing,01,1,64,2,5,1,1.12,0,0,2,309,1,IN/Out,01,3,5,1,6,1,1.3,0,0,2,309,1,leading/trailing,01,1,460,1,4,1,1.26,0,0,3,309,1,IN/Out,01,2,633,1,7,1,1,0,0,3,309,1,IN/Out,01,2,45,2,7,1,1.48,0,0,2,309,1,IN/Out,01,2,563,1,5,0,2.79,0,0,3,309,1,IN/Out,00,1,942,1,2,1,2.91,0,0,3,309,1,IN/Out,01,2,33,1,7,1,1.2,0,0,2,309,1,IN/Out,01,2,22,1,7,1,1.27,0,0,2,309,1,IN/Out,01,4,640,3,4,1,1.12,0,0,3,309,1,leading/trailing,01,3,5,1,7,1,1.2,0,0,2,309,1,leading/trailing,01,1,813,3,5,1,2.04,0,0,3,309,1,IN/Out,01,4,90,2,5,1,1.1,0,0,2,309,1,leading/trailing,00,1,750,2,2,1,2.15,0,0,3,309,1,IN/Out,01,4,420,3,4,1,1.35,0,0,3,309,1,leading/trailing,00,3,67,1,1,1,2.93,0,0,3,309,1,leading/trailing,00,4,80,2,1,1,1.26,0,0,2,309,1,leading/trailing,00,3,67,1,1,1,1.17,0,0,3,309,1,leading/trailing,00,2,27,1,1,1,0.913,0,0,2,309,1,IN/Out,01,1,188,3,3,1,1.56,0,0,3,309,1,IN/Out,01,1,1,2,3,1,0.81,0,0,2,309,1,IN/Out,01,4,60,2,6,1,1.05,0,0,2,309,1,leading/trailing,01,3,9,1,4,1,0.81,0,0,2,309,1,leading/trailing,00,3,6,1,1,1,1.1,0,0,2,309,1,leading/trailing,01,1,565,2,3,1,3.35,0,0,3,309,1,IN/Out,01,1,21,1,4,1,1.06,0,0,2,309,1,IN/Out,01,2,472,3,7,1,1.26,0,0,3,309,1,IN/Out,01,2,20,1,7,1,1.49,0,0,2,309,1,IN/Out,00,4,180,3,1,1,2.27,0,0,3,309,1,leading/trailing,01,1,38,2,4,1,0.902,0,0,2,309,1,IN/Out,00,2,47,1,1,1,1.73,0,0,2,309,1,IN/Out,01,2,16,2,5,1,1.07,0,0,2,309,1,IN/Out,01,1,67,1,3,1,1.03,0,0,2,309,1,IN/Out,00,2,117,1,1,1,2.6,0,0,3,309,1,IN/Out,01,3,7,1,6,1,1.56,0,0,2,309,1,leading/trailing,00,3,7,1,1,1,2.06,0,0,2,309,1,leading/trailing,01,3,52,1,5,1,2.37,0,0,3,309,1,leading/trailing,01,1,59,2,6,1,1,0,0,2,309,1,IN/Out,01,3,5,1,5,1,1.26,0,0,2,309,1,leading/trailing,00,4,70,2,1,1,0.884,0,0,2,309,1,leading/trailing,01,2,32,2,6,1,1.58,0,0,2,309,1,IN/Out,01,3,4,1,7,1,1.71,0,0,2,309,1,leading/trailing,00,2,99,1,1,1,2.68,0,0,3,309,1,IN/Out,01,3,4,1,7,1,1.51,0,0,2,309,1,leading/trailing,01,3,6,1,5,1,0.868,0,0,2,309,1,leading/trailing,01,4,560,3,6,1,1.18,0,0,3,309,1,leading/trailing,00,2,107,1,1,1,3.01,0,0,3,309,1,IN/Out,01,2,972,2,7,1,1.36,0,0,3,309,1,IN/Out,01,3,51,1,7,1,1.95,0,0,3,309,1,leading/trailing,01,1,682,2,5,1,0.854,0,0,3,309,1,IN/Out,01,3,66,1,6,1,1.62,0,0,3,309,1,leading/trailing,01,3,69,1,6,1,1.01,0,0,3,309,1,leading/trailing,01,4,60,2,5,1,1.37,0,0,2,309,1,leading/trailing,00,3,28,1,1,1,3.48,0,0,3,309,1,leading/trailing,01,1,721,2,4,1,0.854,0,0,3,309,1,IN/Out,01,2,552,3,7,1,1.15,0,0,3,309,1,IN/Out,01,4,60,2,7,1,1.16,0,0,2,309,1,leading/trailing,01,1,59,2,4,1,2.34,0,0,2,309,1,IN/Out,01,3,53,1,6,1,1.76,0,0,3,309,1,leading/trailing,01,3,4,1,5,1,0.842,0,0,2,309,1,leading/trailing,01,4,70,2,4,1,1.37,0,0,2,309,1,leading/trailing,01,4,70,2,5,1,1.08,0,0,2,309,1,leading/trailing,01,3,87,1,4,1,0.796,0,0,3,309,1,leading/trailing,00,4,50,2,1,1,1.41,0,0,2,309,1,leading/trailing,00,3,7,1,1,1,1.76,0,0,2,309,1,leading/trailing,01,2,923,2,6,1,1.06,0,0,3,309,1,IN/Out,01,3,62,1,5,1,1.26,0,0,3,309,1,leading/trailing,01,1,251,1,3,1,0.793,0,0,3,309,1,IN/Out,01,3,8,1,7,1,1.21,0,0,2,309,1,leading/trailing,01,2,74,1,6,1,0.813,0,0,2,309,1,IN/Out,00,4,650,3,1,1,2.14,0,0,3,309,1,leading/trailing,00,2,705,2,1,1,0.863,0,0,3,309,1,IN/Out,00,4,310,3,1,1,0.929,0,0,3,309,1,leading/trailing,01,2,34,1,6,1,3.68,0,0,3,309,1,IN/Out,00,3,17,1,1,1,1.73,0,0,3,309,1,leading/trailing,01,2,62,2,6,1,1.34,0,0,2,309,1,IN/Out,01,4,710,3,5,1,1.3,0,0,3,309,1,leading/trailing,01,1,26,1,4,1,0.923,0,0,2,309,1,IN/Out,00,3,1,1,1,1,1.75,0,0,2,309,1,leading/trailing,01,2,81,2,5,1,1.08,0,0,2,309,1,IN/Out,01,3,95,1,7,1,1.9,0,0,3,309,1,leading/trailing,01,4,580,3,7,1,1.91,0,0,3,309,1,leading/trailing,01,1,61,2,3,1,1.13,0,0,2,309,1,IN/Out,00,2,6,1,1,1,1.19,0,0,2,309,1,IN/Out,01,1,967,1,3,1,1.63,0,0,3,309,1,IN/Out,01,4,90,2,7,1,1.08,0,0,2,309,1,leading/trailing,01,4,410,3,7,1,0.738,0,0,3,309,1,leading/trailing,01,4,830,3,4,1,0.682,0,0,3,309,1,leading/trailing,00,1,7,2,2,1,0.911,0,0,2,309,1,IN/Out,01,4,20,2,4,1,0.697,0,0,2,309,1,leading/trailing,01,3,7,1,6,1,1.23,0,0,2,309,1,leading/trailing,01,3,36,1,7,1,1.4,0,0,3,309,1,leading/trailing,01,3,3,1,4,1,0.898,0,0,2,309,1,leading/trailing,00,1,648,1,2,1,1.01,0,0,3,309,1,IN/Out,01,1,694,3,3,1,1.46,0,0,3,309,1,IN/Out,01,4,470,3,6,1,2.06,0,0,3,309,1,leading/trailing,01,2,956,3,7,1,1.39,0,0,3,309,1,IN/Out,01,1,719,3,4,1,1.36,0,0,3,309,1,IN/Out,01,4,70,2,6,1,1.62,0,0,2,309,1,leading/trailing,01,2,236,3,7,1,2.43,0,0,3,309,1,IN/Out,01,2,57,2,7,1,1.82,0,0,2,309,1,IN/Out,01,4,620,3,4,1,0.854,0,0,3,309,1,leading/trailing,01,2,739,1,6,1,1.49,0,0,3,309,1,IN/Out,01,2,420,3,5,1,1.14,0,0,3,309,1,IN/Out,01,4,730,3,7,1,3.9,0,0,3,309,1,leading/trailing,00,1,88,2,2,1,1.21,0,0,2,309,1,IN/Out,00,1,79,1,2,1,0.994,0,0,2,309,1,IN/Out,01,1,53,2,4,1,1.2,0,0,2,309,1,IN/Out,01,4,610,3,4,1,0.933,0,0,3,309,1,leading/trailing,01,4,880,3,5,1,0.883,0,0,3,309,1,leading/trailing,01,1,60,1,3,1,1.18,0,0,2,309,1,IN/Out,00,4,810,3,1,1,1.76,0,0,3,309,1,leading/trailing,00,1,482,2,2,1,1.04,0,0,3,309,1,IN/Out,01,3,55,1,4,1,0.981,0,0,3,309,1,leading/trailing,01,2,34,1,7,1,1.64,0,0,2,309,1,IN/Out,01,3,68,1,5,1,1.08,0,0,3,309,1,leading/trailing,01,2,517,2,5,1,0.721,0,0,3,309,1,IN/Out,01,1,89,2,5,1,0.9,0,0,2,309,1,IN/Out,01,1,911,1,6,1,1.07,0,0,3,309,1,IN/Out,00,1,28,2,2,1,1.81,0,0,2,309,1,IN/Out,01,4,60,2,7,1,1.35,0,0,2,309,1,leading/trailing,01,2,41,2,7,1,0.841,0,0,2,309,1,IN/Out,00,4,90,2,1,1,1.53,0,0,2,309,1,leading/trailing,01,1,860,1,4,1,1.67,0,0,3,309,1,IN/Out,00,2,40,2,1,1,1.05,0,0,2,309,1,IN/Out,01,3,36,1,5,1,2.62,0,0,3,309,1,leading/trailing,01,4,80,2,7,1,1.76,0,0,2,310,1,leading/trailing,00,3,7,1,1,1,0.969,0,0,2,310,1,leading/trailing,01,1,92,1,6,1,1.03,0,0,2,310,1,IN/Out,00,3,4,1,1,1,0.916,0,0,2,310,1,leading/trailing,01,4,950,3,4,1,1.84,0,0,3,310,1,leading/trailing,01,1,392,1,3,1,0.818,0,0,3,310,1,IN/Out,00,4,90,2,1,1,0.921,0,0,2,310,1,leading/trailing,01,3,1,1,7,1,0.969,0,0,2,310,1,leading/trailing,01,4,20,2,5,1,0.848,0,0,2,310,1,leading/trailing,00,1,634,1,2,1,0.861,0,0,3,310,1,IN/Out,01,1,87,2,4,1,1.21,0,0,2,310,1,IN/Out,00,1,78,1,2,1,0.981,0,0,2,310,1,IN/Out,01,3,7,1,5,1,1.85,0,0,2,310,1,leading/trailing,01,2,312,1,7,1,1.38,0,0,3,310,1,IN/Out,00,3,85,1,1,1,1.06,0,0,3,310,1,leading/trailing,00,1,374,2,2,1,1.2,0,0,3,310,1,IN/Out,01,2,8,1,5,1,1.08,0,0,2,310,1,IN/Out,01,1,2,2,4,1,1.67,0,0,2,310,1,IN/Out,01,3,23,1,4,1,1.06,0,0,3,310,1,leading/trailing,01,1,845,2,5,1,1.43,0,0,3,310,1,IN/Out,01,2,863,2,6,1,0.864,0,0,3,310,1,IN/Out,00,2,92,2,1,1,1.62,0,0,2,310,1,IN/Out,01,2,181,3,7,1,0.97,0,0,3,310,1,IN/Out,01,2,11,1,6,1,1.14,0,0,2,310,1,IN/Out,01,3,12,1,6,1,2.39,0,0,3,310,1,leading/trailing,00,4,980,3,1,1,3.09,0,0,3,310,1,leading/trailing,01,3,9,1,4,1,0.986,0,0,2,310,1,leading/trailing,00,2,68,1,1,1,1.08,0,0,3,310,1,IN/Out,01,1,163,3,5,1,1.04,0,0,3,310,1,IN/Out,01,2,15,1,5,1,1.01,0,0,2,310,1,IN/Out,01,1,520,2,4,1,0.828,0,0,3,310,1,IN/Out,01,2,66,1,5,1,1.43,0,0,2,310,1,IN/Out,01,1,79,2,4,1,1.17,0,0,2,310,1,IN/Out,01,2,86,2,6,1,0.915,0,0,2,310,1,IN/Out,00,1,89,2,2,1,0.988,0,0,2,310,1,IN/Out,01,4,160,3,4,1,0.922,0,0,3,310,1,leading/trailing,01,1,11,1,3,1,0.811,0,0,2,310,1,IN/Out,00,3,13,1,1,1,0.977,0,0,3,310,1,leading/trailing,00,2,229,2,1,1,0.988,0,0,3,310,1,IN/Out,01,4,240,3,4,1,0.677,0,0,3,310,1,leading/trailing,01,4,330,3,7,1,2.33,0,0,3,310,1,leading/trailing,01,3,6,1,6,1,1.68,0,0,2,310,1,leading/trailing,01,3,6,1,7,1,1.14,0,0,2,310,1,leading/trailing,01,1,258,3,4,1,0.86,0,0,3,310,1,IN/Out,01,4,50,2,5,1,0.847,0,0,2,310,1,leading/trailing,00,1,91,2,2,1,1.39,0,0,3,310,1,IN/Out,01,4,890,3,4,1,0.903,0,0,3,310,1,leading/trailing,00,4,20,2,1,1,0.955,0,0,2,310,1,leading/trailing,01,1,163,3,4,0,0.904,0,0,3,310,1,IN/Out,01,2,358,2,7,1,1.44,0,0,3,310,1,IN/Out,01,2,88,1,7,1,1.73,0,0,2,310,1,IN/Out,00,1,57,2,2,1,0.903,0,0,2,310,1,IN/Out,01,3,2,1,7,1,0.903,0,0,2,310,1,leading/trailing,01,4,710,3,7,1,0.897,0,0,3,310,1,leading/trailing,01,3,84,1,5,1,0.908,0,0,3,310,1,leading/trailing,01,3,79,1,4,1,0.876,0,0,3,310,1,leading/trailing,01,1,67,2,4,1,0.983,0,0,2,310,1,IN/Out,01,3,4,1,6,1,1.28,0,0,2,310,1,leading/trailing,01,1,40,1,4,1,1.03,0,0,2,310,1,IN/Out,01,4,60,2,4,1,0.749,0,0,2,310,1,leading/trailing,01,3,7,1,7,1,0.684,0,0,2,310,1,leading/trailing,00,3,3,1,1,1,1.24,0,0,2,310,1,leading/trailing,01,2,85,2,7,1,0.981,0,0,2,310,1,IN/Out,01,1,54,2,6,1,0.808,0,0,2,310,1,IN/Out,01,3,31,1,7,1,1.31,0,0,3,310,1,leading/trailing,01,4,50,2,5,1,0.912,0,0,2,310,1,leading/trailing,01,3,7,1,6,1,1.54,0,0,2,310,1,leading/trailing,01,2,576,1,4,0,1.62,0,0,3,310,1,IN/Out,01,2,198,1,5,1,1.74,0,0,3,310,1,IN/Out,00,4,820,3,1,1,1.16,0,0,3,310,1,leading/trailing,01,4,270,3,5,1,1.06,0,0,3,310,1,leading/trailing,01,2,922,2,6,1,2.39,0,0,3,310,1,IN/Out,00,4,10,2,1,1,1.16,0,0,2,310,1,leading/trailing,01,1,15,1,3,1,1.02,0,0,2,310,1,IN/Out,00,1,105,3,2,1,0.977,0,0,3,310,1,IN/Out,00,2,500,3,1,1,0.848,0,0,3,310,1,IN/Out,01,2,353,2,6,1,1.89,0,0,3,310,1,IN/Out,01,2,7,1,5,1,1.12,0,0,2,310,1,IN/Out,01,4,280,3,7,1,1.2,0,0,3,310,1,leading/trailing,01,3,79,1,6,1,1.43,0,0,3,310,1,leading/trailing,01,2,53,1,6,1,0.974,0,0,2,310,1,IN/Out,00,1,94,1,2,1,1.11,0,0,2,310,1,IN/Out,00,3,63,1,1,1,0.884,0,0,3,310,1,leading/trailing,00,4,10,2,1,1,0.669,0,0,2,310,1,leading/trailing,01,3,88,1,4,1,1.12,0,0,3,310,1,leading/trailing,01,4,70,2,5,1,1.47,0,0,2,310,1,leading/trailing,01,3,89,1,4,1,1.21,0,0,3,310,1,leading/trailing,01,1,82,3,3,1,0.834,0,0,3,310,1,IN/Out,01,2,309,2,6,1,1.44,0,0,3,310,1,IN/Out,01,4,70,2,5,1,0.793,0,0,2,310,1,leading/trailing,01,3,49,1,4,1,0.886,0,0,3,310,1,leading/trailing,01,3,4,1,6,1,1.26,0,0,2,310,1,leading/trailing,00,2,90,3,1,1,1.18,0,0,3,310,1,IN/Out,01,4,80,2,4,1,0.818,0,0,2,310,1,leading/trailing,01,2,16,3,5,1,0.964,0,0,3,310,1,IN/Out,01,4,670,3,7,1,0.933,0,0,3,310,1,leading/trailing,01,1,62,1,3,1,0.782,0,0,2,310,1,IN/Out,01,3,2,1,7,1,1.07,0,0,2,310,1,leading/trailing,01,2,48,2,7,0,0.854,0,0,2,310,1,IN/Out,01,2,27,1,7,1,1.31,0,0,2,310,1,IN/Out,01,4,70,2,5,1,0.883,0,0,2,310,1,leading/trailing,00,2,34,2,1,1,1.27,0,0,2,310,1,IN/Out,01,4,920,3,6,1,1.54,0,0,3,310,1,leading/trailing,01,1,960,2,3,1,1.05,0,0,3,310,1,IN/Out,01,2,947,3,7,1,0.987,0,0,3,310,1,IN/Out,01,4,330,3,5,1,0.833,0,0,3,310,1,leading/trailing,01,3,24,1,7,1,1.35,0,0,3,310,1,leading/trailing,01,1,782,2,5,1,1,0,0,3,310,1,IN/Out,00,3,5,1,1,1,0.77,0,0,2,310,1,leading/trailing,01,3,7,1,5,1,2.78,0,0,2,310,1,leading/trailing,01,4,70,2,5,1,1.07,0,0,2,310,1,leading/trailing,01,1,37,2,3,1,0.759,0,0,2,310,1,IN/Out,00,4,460,3,1,0,1.04,0,0,3,310,1,leading/trailing,00,2,32,2,1,1,0.756,0,0,2,310,1,IN/Out,01,1,52,3,3,1,0.78,0,0,3,310,1,IN/Out,01,3,65,1,7,1,2.17,0,0,3,310,1,leading/trailing,01,2,43,2,7,1,1.22,0,0,2,310,1,IN/Out,01,4,60,2,4,1,1.08,0,0,2,310,1,leading/trailing,01,1,882,2,5,1,2.18,0,0,3,310,1,IN/Out,01,2,756,3,6,1,0.945,0,0,3,310,1,IN/Out,01,4,10,2,6,1,1.08,0,0,2,310,1,leading/trailing,00,2,29,1,1,1,1.31,0,0,2,310,1,IN/Out,01,4,110,3,6,1,1.03,0,0,3,310,1,leading/trailing,01,3,47,1,4,1,0.815,0,0,3,310,1,leading/trailing,00,3,15,1,1,1,0.955,0,0,3,310,1,leading/trailing,01,1,68,2,4,1,0.699,0,0,2,310,1,IN/Out,01,1,71,2,3,1,0.756,0,0,3,310,1,IN/Out,00,4,460,3,1,1,0.717,0,0,3,310,1,leading/trailing,01,2,239,1,6,1,3.5,0,0,3,311,1,IN/Out,01,4,50,2,6,1,1.63,0,0,2,311,1,leading/trailing,01,3,92,1,5,1,1.34,0,0,3,311,1,leading/trailing,01,4,30,2,5,1,1.2,0,0,2,311,1,leading/trailing,00,2,11,2,1,1,1.36,0,0,2,311,1,IN/Out,01,4,650,3,7,1,1.77,0,0,3,311,1,leading/trailing,01,3,48,1,6,1,1.22,0,0,3,311,1,leading/trailing,01,1,10,1,3,1,0.948,0,0,2,311,1,IN/Out,01,2,61,2,5,1,1.28,0,0,2,311,1,IN/Out,01,3,98,1,5,1,1.18,0,0,3,311,1,leading/trailing,01,1,44,2,4,1,1.8,0,0,2,311,1,IN/Out,01,3,1,1,6,1,1.11,0,0,2,311,1,leading/trailing,00,3,78,1,1,1,3.05,0,0,3,311,1,leading/trailing,01,4,80,2,6,1,1.12,0,0,2,311,1,leading/trailing,01,4,180,3,6,1,0.835,0,0,3,311,1,leading/trailing,00,1,796,2,2,1,1.36,0,0,3,311,1,IN/Out,01,3,16,1,4,1,0.817,0,0,3,311,1,leading/trailing,01,3,53,1,6,1,1.18,0,0,3,311,1,leading/trailing,01,2,69,1,6,1,1.1,0,0,2,311,1,IN/Out,01,4,530,3,7,1,1.67,0,0,3,311,1,leading/trailing,00,1,79,2,2,0,0.898,0,0,2,311,1,IN/Out,01,1,442,3,4,1,1.29,0,0,3,311,1,IN/Out,01,1,88,1,5,1,0.921,0,0,2,311,1,IN/Out,01,4,90,2,7,1,1.02,0,0,2,311,1,leading/trailing,01,2,641,1,7,1,1.28,0,0,3,311,1,IN/Out,01,1,111,1,3,1,1.25,0,0,3,311,1,IN/Out,01,3,6,1,7,1,1.34,0,0,2,311,1,leading/trailing,01,4,250,3,6,1,1.07,0,0,3,311,1,leading/trailing,01,4,10,2,5,1,1.03,0,0,2,311,1,leading/trailing,01,3,5,1,5,1,1.33,0,0,2,311,1,leading/trailing,00,4,650,3,1,0,1.15,0,0,3,311,1,leading/trailing,01,3,1,1,6,1,1.88,0,0,2,311,1,leading/trailing,01,3,2,1,6,1,1.51,0,0,2,311,1,leading/trailing,01,3,2,1,7,1,1.21,0,0,2,311,1,leading/trailing,01,3,2,1,5,1,1.08,0,0,2,311,1,leading/trailing,01,3,3,1,7,1,1.34,0,0,2,311,1,leading/trailing,01,1,69,2,6,1,1.01,0,0,2,311,1,IN/Out,01,2,63,1,7,0,1.16,0,0,2,311,1,IN/Out,01,3,62,1,5,1,1.14,0,0,3,311,1,leading/trailing,01,1,69,2,3,1,1.31,0,0,2,311,1,IN/Out,00,4,30,2,1,1,2.02,0,0,2,311,1,leading/trailing,01,1,94,1,5,1,0.992,0,0,2,311,1,IN/Out,00,2,36,1,1,1,1.73,0,0,3,311,1,IN/Out,01,3,9,1,7,1,1.65,0,0,2,311,1,leading/trailing,01,2,30,2,6,1,1.27,0,0,2,311,1,IN/Out,01,2,98,2,7,1,1.61,0,0,2,311,1,IN/Out,01,2,53,1,4,1,0.789,0,0,2,311,1,IN/Out,00,3,5,1,1,1,0.837,0,0,2,311,1,leading/trailing,01,3,9,1,5,1,1.24,0,0,2,311,1,leading/trailing,01,3,16,1,6,1,1.24,0,0,3,311,1,leading/trailing,00,3,3,1,1,1,1.03,0,0,2,311,1,leading/trailing,01,2,8,2,7,1,0.876,0,0,3,311,1,IN/Out,01,4,90,2,5,1,1.17,0,0,2,311,1,leading/trailing,01,2,801,2,4,1,1.24,0,0,3,311,1,IN/Out,01,3,87,1,6,1,1.33,0,0,3,311,1,leading/trailing,01,3,13,1,7,1,0.819,0,0,3,311,1,leading/trailing,01,2,926,3,5,1,0.883,0,0,3,311,1,IN/Out,01,4,90,2,5,1,0.791,0,0,2,311,1,leading/trailing,01,1,192,2,4,1,0.953,0,0,3,311,1,IN/Out,01,4,40,2,6,1,1.12,0,0,2,311,1,leading/trailing,01,1,554,3,4,1,0.718,0,0,3,311,1,IN/Out,01,4,80,2,6,1,0.913,0,0,2,311,1,leading/trailing,01,4,90,2,4,1,0.818,0,0,2,311,1,leading/trailing,01,3,8,1,6,1,1.22,0,0,2,311,1,leading/trailing,00,4,530,3,1,1,2.09,0,0,3,311,1,leading/trailing,01,1,111,1,3,1,1.03,0,0,3,311,1,IN/Out,01,4,220,3,5,1,1.03,0,0,3,311,1,leading/trailing,01,1,98,1,3,1,0.872,0,0,2,311,1,IN/Out,01,1,18,2,3,1,0.845,0,0,2,311,1,IN/Out,00,3,1,1,1,1,0.928,0,0,2,311,1,leading/trailing,00,3,76,1,1,1,0.625,0,0,3,311,1,leading/trailing,01,2,3,2,7,1,1.57,0,0,2,311,1,IN/Out,01,1,944,3,5,1,1.03,0,0,3,311,1,IN/Out,01,1,614,3,6,1,0.98,0,0,3,311,1,IN/Out,00,4,90,2,1,1,0.931,0,0,2,311,1,leading/trailing,01,3,49,1,6,1,1.18,0,0,3,311,1,leading/trailing,01,1,199,2,6,1,1.2,0,0,3,311,1,IN/Out,01,2,842,1,7,0,1.5,0,0,3,311,1,IN/Out,00,1,278,3,2,1,1.93,0,0,3,311,1,IN/Out,01,2,77,2,7,1,1.27,0,0,2,311,1,IN/Out,00,2,91,2,1,1,0.712,0,0,2,311,1,IN/Out,01,1,48,1,6,1,0.818,0,0,2,311,1,IN/Out,01,4,960,3,7,1,1.56,0,0,3,311,1,leading/trailing,01,4,480,3,4,1,0.773,0,0,3,311,1,leading/trailing,00,1,955,1,2,1,1.03,0,0,3,311,1,IN/Out,01,2,28,1,6,1,1.23,0,0,2,311,1,IN/Out,01,1,92,1,6,1,0.749,0,0,2,311,1,IN/Out,01,3,18,1,5,1,0.732,0,0,3,311,1,leading/trailing,01,1,43,1,4,1,0.719,0,0,2,311,1,IN/Out,00,4,450,3,1,1,1.39,0,0,3,311,1,leading/trailing,01,2,468,3,7,1,1.23,0,0,3,311,1,IN/Out,01,1,761,2,3,1,1.25,0,0,3,311,1,IN/Out,00,3,74,1,1,1,1.32,0,0,3,311,1,leading/trailing,00,1,28,2,2,0,0.75,0,0,2,311,1,IN/Out,00,3,1,1,1,1,0.982,0,0,2,311,1,leading/trailing,00,4,20,2,1,1,0.846,0,0,2,311,1,leading/trailing,01,2,936,3,7,1,1.69,0,0,3,311,1,IN/Out,01,2,266,1,7,1,1.36,0,0,3,311,1,IN/Out,01,4,310,3,7,1,3.37,0,0,3,311,1,leading/trailing,00,1,174,2,2,1,1.34,0,0,3,311,1,IN/Out,00,2,384,1,1,1,0.925,0,0,3,311,1,IN/Out,01,3,7,1,5,1,0.985,0,0,2,311,1,leading/trailing,00,2,646,2,1,1,0.804,0,0,3,311,1,IN/Out,00,3,79,1,1,1,0.79,0,0,3,311,1,leading/trailing,01,2,837,1,7,1,1.23,0,0,3,311,1,IN/Out,00,4,30,2,1,1,1.28,0,0,2,311,1,leading/trailing,00,1,17,2,2,1,0.804,0,0,2,311,1,IN/Out,00,1,86,2,2,1,0.811,0,0,2,311,1,IN/Out,01,1,445,1,3,0,1.18,0,0,3,311,1,IN/Out,01,1,81,1,3,1,0.91,0,0,2,311,1,IN/Out,01,2,504,2,4,1,2.13,0,0,3,311,1,IN/Out,01,2,928,2,7,1,1.43,0,0,3,311,1,IN/Out,01,2,11,2,5,1,1.1,0,0,2,311,1,IN/Out,00,2,4,2,1,1,1.04,0,0,2,311,1,IN/Out,01,4,40,2,6,1,1.26,0,0,2,311,1,leading/trailing,01,4,520,3,5,0,0.861,0,0,3,311,1,leading/trailing,01,1,309,3,6,1,1.17,0,0,3,311,1,IN/Out,00,4,360,3,1,1,1.12,0,0,3,311,1,leading/trailing,00,2,17,1,1,1,0.873,0,0,2,311,1,IN/Out,00,2,64,3,1,1,0.782,0,0,3,311,1,IN/Out,01,4,870,3,5,1,1.27,0,0,3,311,1,leading/trailing,01,4,150,3,4,1,0.782,0,0,3,311,1,leading/trailing,01,4,530,3,4,1,0.733,0,0,3,311,1,leading/trailing,01,1,932,1,4,1,2.94,0,0,3,311,1,IN/Out,01,3,19,1,7,1,1.39,0,0,3,311,1,leading/trailing,01,2,87,1,7,1,0.949,0,0,2,311,1,IN/Out,01,2,63,1,6,1,0.767,0,0,2,311,1,IN/Out,01,4,40,2,6,1,0.832,0,0,2,311,1,leading/trailing,00,2,505,2,1,1,2.2,0,0,3,312,1,IN/Out,00,3,76,1,1,1,0.811,0,0,3,312,1,leading/trailing,01,4,970,3,4,1,1.16,0,0,3,312,1,leading/trailing,00,4,50,2,1,1,1.19,0,0,2,312,1,leading/trailing,01,2,553,3,7,1,0.926,0,0,3,312,1,IN/Out,01,2,38,1,4,1,1.08,0,0,3,312,1,IN/Out,01,4,60,2,7,1,0.842,0,0,2,312,1,leading/trailing,01,3,6,1,4,1,0.696,0,0,2,312,1,leading/trailing,01,4,920,3,4,1,0.795,0,0,3,312,1,leading/trailing,01,3,2,1,5,1,0.681,0,0,2,312,1,leading/trailing,01,2,3,1,5,1,0.789,0,0,2,312,1,IN/Out,01,3,9,1,6,1,0.861,0,0,2,312,1,leading/trailing,01,4,480,3,7,1,1.2,0,0,3,312,1,leading/trailing,01,3,62,1,6,1,3.02,0,0,3,312,1,leading/trailing,01,3,4,1,5,1,0.73,0,0,2,312,1,leading/trailing,01,1,96,2,5,1,1.02,0,0,3,312,1,IN/Out,00,2,609,2,1,1,1.06,0,0,3,312,1,IN/Out,01,4,20,2,4,1,0.66,0,0,2,312,1,leading/trailing,01,1,788,3,4,1,0.681,0,0,3,312,1,IN/Out,01,1,549,3,3,1,0.668,0,0,3,312,1,IN/Out,01,2,15,2,4,1,0.73,0,0,2,312,1,IN/Out,01,2,36,2,5,1,0.737,0,0,2,312,1,IN/Out,00,1,91,1,2,1,1.04,0,0,2,312,1,IN/Out,00,1,319,3,2,1,0.614,0,0,3,312,1,IN/Out,01,2,29,1,6,1,0.67,0,0,2,312,1,IN/Out,01,2,20,2,6,1,0.892,0,0,2,312,1,IN/Out,01,3,5,1,7,1,0.95,0,0,2,312,1,leading/trailing,01,3,7,1,6,1,0.87,0,0,2,312,1,leading/trailing,01,2,811,3,5,1,0.848,0,0,3,312,1,IN/Out,01,2,429,2,7,1,0.797,0,0,3,312,1,IN/Out,01,1,22,2,3,1,0.58,0,0,2,312,1,IN/Out,01,1,1,2,3,1,0.643,0,0,2,312,1,IN/Out,00,1,94,2,2,1,0.673,0,0,3,312,1,IN/Out,01,4,20,2,5,1,1.06,0,0,2,312,1,leading/trailing,01,3,17,1,7,1,0.896,0,0,3,312,1,leading/trailing,01,4,70,2,7,1,0.724,0,0,2,312,1,leading/trailing,01,2,6,2,7,1,0.661,0,0,2,312,1,IN/Out,01,3,34,1,7,1,0.745,0,0,3,312,1,leading/trailing,01,2,87,2,6,1,0.624,0,0,2,312,1,IN/Out,01,1,75,1,3,1,0.534,0,0,2,312,1,IN/Out,00,2,70,2,1,1,0.631,0,0,2,312,1,IN/Out,01,4,890,3,7,1,0.948,0,0,3,312,1,leading/trailing,00,2,74,1,1,1,1.07,0,0,3,312,1,IN/Out,00,1,16,2,2,1,0.623,0,0,2,312,1,IN/Out,01,3,64,1,5,1,1.07,0,0,3,312,1,leading/trailing,00,1,25,2,2,1,0.917,0,0,2,312,1,IN/Out,01,2,1,1,6,1,1.3,0,0,3,312,1,IN/Out,01,4,50,2,7,1,0.815,0,0,2,312,1,leading/trailing,01,1,875,1,3,1,0.661,0,0,3,312,1,IN/Out,01,1,509,3,5,1,0.687,0,0,3,312,1,IN/Out,01,2,10,2,6,0,0.698,0,0,2,312,1,IN/Out,00,3,7,1,1,1,0.543,0,0,2,312,1,leading/trailing,01,4,140,3,7,1,1.8,0,0,3,312,1,leading/trailing,00,4,930,3,1,1,0.834,0,0,3,312,1,leading/trailing,01,1,24,1,3,1,1.1,0,0,2,312,1,IN/Out,01,3,78,1,7,1,0.881,0,0,3,312,1,leading/trailing,01,4,30,2,7,1,1.03,0,0,2,312,1,leading/trailing,01,4,350,3,6,1,1.07,0,0,3,312,1,leading/trailing,00,3,1,1,1,1,1.59,0,0,2,312,1,leading/trailing,01,3,96,1,4,1,0.887,0,0,3,312,1,leading/trailing,01,1,341,2,4,1,0.794,0,0,3,312,1,IN/Out,01,2,379,2,6,1,1.09,0,0,3,312,1,IN/Out,01,3,1,1,5,1,0.663,0,0,2,312,1,leading/trailing,01,4,70,2,5,1,0.683,0,0,2,312,1,leading/trailing,01,3,18,1,4,1,0.887,0,0,3,312,1,leading/trailing,01,4,80,2,6,1,0.746,0,0,2,312,1,leading/trailing,01,4,870,3,4,1,0.57,0,0,3,312,1,leading/trailing,01,2,876,3,7,1,0.802,0,0,3,312,1,IN/Out,00,3,21,1,1,1,1.05,0,0,3,312,1,leading/trailing,00,4,830,3,1,0,1.07,0,0,3,312,1,leading/trailing,00,2,36,1,1,1,1.01,0,0,2,312,1,IN/Out,01,3,9,1,6,1,0.946,0,0,2,312,1,leading/trailing,00,4,10,2,1,1,0.946,0,0,2,312,1,leading/trailing,01,1,119,3,3,1,0.681,0,0,3,312,1,IN/Out,01,4,50,2,6,1,0.886,0,0,2,312,1,leading/trailing,01,2,55,2,5,1,0.655,0,0,2,312,1,IN/Out,01,1,978,3,4,1,1.1,0,0,3,312,1,IN/Out,00,3,45,1,1,1,1.72,0,0,3,312,1,leading/trailing,01,4,20,2,6,1,0.877,0,0,2,312,1,leading/trailing,01,1,30,1,5,1,0.752,0,0,2,312,1,IN/Out,00,3,2,1,1,1,1.08,0,0,2,312,1,leading/trailing,01,1,97,1,4,1,0.904,0,0,2,312,1,IN/Out,01,3,5,1,6,1,0.803,0,0,2,312,1,leading/trailing,01,1,447,3,3,1,0.889,0,0,3,312,1,IN/Out,01,3,79,1,5,1,0.977,0,0,3,312,1,leading/trailing,00,4,140,3,1,1,1.17,0,0,3,312,1,leading/trailing,01,3,69,1,6,1,1.08,0,0,3,312,1,leading/trailing,00,3,39,1,1,1,1.37,0,0,3,312,1,leading/trailing,00,2,498,1,1,1,2.31,0,0,3,312,1,IN/Out,01,2,964,2,7,1,1.27,0,0,3,312,1,IN/Out,01,2,904,2,6,1,0.687,0,0,3,312,1,IN/Out,01,2,233,1,6,1,1.1,0,0,3,312,1,IN/Out,00,4,940,3,1,1,0.729,0,0,3,312,1,leading/trailing,01,1,95,1,3,1,0.803,0,0,2,312,1,IN/Out,01,4,880,3,4,1,0.714,0,0,3,312,1,leading/trailing,00,1,748,3,2,1,0.737,0,0,3,312,1,IN/Out,01,3,9,1,4,1,0.803,0,0,2,312,1,leading/trailing,01,3,21,1,4,1,1.09,0,0,3,312,1,leading/trailing,00,1,724,1,2,1,0.691,0,0,3,312,1,IN/Out,01,4,10,2,7,1,0.98,0,0,2,312,1,leading/trailing,00,2,92,2,1,1,0.675,0,0,2,312,1,IN/Out,01,2,76,2,6,1,1.21,0,0,2,312,1,IN/Out,01,4,320,3,7,1,1.18,0,0,3,312,1,leading/trailing,01,1,56,2,3,1,0.655,0,0,2,312,1,IN/Out,01,2,41,2,5,1,0.598,0,0,2,312,1,IN/Out,01,1,10,1,3,1,1.4,0,0,2,312,1,IN/Out,01,4,70,2,7,1,0.736,0,0,2,312,1,leading/trailing,01,3,26,1,4,1,1.19,0,0,3,312,1,leading/trailing,01,3,9,1,7,1,0.711,0,0,2,312,1,leading/trailing,01,1,10,1,3,1,0.561,0,0,2,312,1,IN/Out,00,2,10,1,1,1,0.738,0,0,2,312,1,IN/Out,01,3,45,1,5,1,3.21,0,0,3,312,1,leading/trailing,00,3,6,1,1,1,1.07,0,0,2,312,1,leading/trailing,01,2,96,3,7,1,1.09,0,0,3,312,1,IN/Out,01,1,57,3,3,1,0.664,0,0,3,312,1,IN/Out,01,1,95,1,6,1,0.786,0,0,2,312,1,IN/Out,00,4,30,2,1,1,0.684,0,0,2,312,1,leading/trailing,01,1,746,3,3,1,1.36,0,0,3,312,1,IN/Out,01,3,6,1,6,1,0.693,0,0,2,312,1,leading/trailing,01,4,750,3,7,1,0.652,0,0,3,312,1,leading/trailing,01,4,610,3,4,1,0.554,0,0,3,312,1,leading/trailing,01,2,922,2,7,1,0.665,0,0,3,312,1,IN/Out,01,4,950,3,5,1,0.631,0,0,3,312,1,leading/trailing,01,1,570,2,3,1,0.555,0,0,3,312,1,IN/Out,01,1,67,1,3,1,0.789,0,0,2,312,1,IN/Out,00,1,64,1,2,1,0.517,0,0,2,312,1,IN/Out,01,2,2,2,6,1,0.781,0,0,2,312,1,IN/Out,00,4,50,2,1,0,0.812,0,0,2,312,1,leading/trailing,01,1,97,1,6,1,2.42,0,0,2,313,1,IN/Out,00,4,470,3,1,1,1.46,0,0,3,313,1,leading/trailing,01,2,560,1,5,1,1.22,0,0,3,313,1,IN/Out,01,2,13,1,6,1,1.03,0,0,2,313,1,IN/Out,01,1,98,1,3,1,1.17,0,0,2,313,1,IN/Out,01,3,9,1,7,1,1.02,0,0,2,313,1,leading/trailing,01,2,3,1,6,1,1.18,0,0,2,313,1,IN/Out,01,2,851,2,7,1,1.18,0,0,3,313,1,IN/Out,01,3,82,1,7,1,1.26,0,0,3,313,1,leading/trailing,01,4,430,3,5,1,1.28,0,0,3,313,1,leading/trailing,01,1,89,1,3,1,0.676,0,0,2,313,1,IN/Out,01,2,73,1,6,0,0.832,0,0,2,313,1,IN/Out,00,1,48,2,2,1,1.5,0,0,2,313,1,IN/Out,01,1,980,2,4,1,0.991,0,0,3,313,1,IN/Out,00,4,460,3,1,1,1.99,0,0,3,313,1,leading/trailing,00,3,85,1,1,1,1.52,0,0,3,313,1,leading/trailing,01,1,75,2,4,1,0.937,0,0,3,313,1,IN/Out,01,2,74,1,6,1,0.962,0,0,2,313,1,IN/Out,01,1,93,1,4,1,0.8,0,0,2,313,1,IN/Out,01,4,60,2,4,1,0.608,0,0,2,313,1,leading/trailing,00,1,6,2,2,1,0.757,0,0,2,313,1,IN/Out,00,2,34,1,1,1,0.911,0,0,2,313,1,IN/Out,01,1,101,3,3,1,0.72,0,0,3,313,1,IN/Out,00,3,6,1,1,1,1.14,0,0,2,313,1,leading/trailing,00,4,90,2,1,1,0.666,0,0,2,313,1,leading/trailing,01,2,10,2,4,1,0.728,0,0,2,313,1,IN/Out,01,1,54,2,6,1,1.12,0,0,2,313,1,IN/Out,01,3,8,1,6,1,1,0,0,2,313,1,leading/trailing,01,4,810,3,4,1,1.04,0,0,3,313,1,leading/trailing,01,4,570,3,4,1,0.845,0,0,3,313,1,leading/trailing,00,2,640,3,1,0,0.658,0,0,3,313,1,IN/Out,01,3,2,1,6,1,1.08,0,0,2,313,1,leading/trailing,00,4,80,2,1,1,0.929,0,0,2,313,1,leading/trailing,01,1,534,3,4,1,0.883,0,0,3,313,1,IN/Out,00,3,32,1,1,1,0.885,0,0,3,313,1,leading/trailing,01,4,30,2,6,1,0.977,0,0,2,313,1,leading/trailing,01,3,5,1,7,1,1.49,0,0,2,313,1,leading/trailing,01,1,54,2,3,1,0.777,0,0,2,313,1,IN/Out,00,2,64,2,1,1,0.727,0,0,2,313,1,IN/Out,01,3,3,1,5,1,0.976,0,0,2,313,1,leading/trailing,01,3,99,1,6,1,1.02,0,0,3,313,1,leading/trailing,01,1,96,2,3,1,0.788,0,0,2,313,1,IN/Out,01,3,3,1,4,1,0.762,0,0,2,313,1,leading/trailing,01,3,23,1,6,1,2.06,0,0,3,313,1,leading/trailing,01,3,69,1,6,1,0.737,0,0,3,313,1,leading/trailing,01,1,89,2,4,1,0.805,0,0,2,313,1,IN/Out,00,4,930,3,1,1,1.05,0,0,3,313,1,leading/trailing,01,2,446,3,5,1,0.819,0,0,3,313,1,IN/Out,01,2,826,3,6,1,0.672,0,0,3,313,1,IN/Out,01,3,85,1,5,1,0.759,0,0,3,313,1,leading/trailing,01,2,68,1,5,1,0.694,0,0,2,313,1,IN/Out,01,1,32,2,4,1,0.542,0,0,2,313,1,IN/Out,01,3,87,1,6,1,0.849,0,0,3,313,1,leading/trailing,00,1,119,3,2,1,0.948,0,0,3,313,1,IN/Out,00,3,69,1,1,1,0.796,0,0,3,313,1,leading/trailing,00,3,6,1,1,1,0.682,0,0,2,313,1,leading/trailing,01,4,540,3,6,1,1.52,0,0,3,313,1,leading/trailing,01,4,30,2,5,1,0.603,0,0,2,313,1,leading/trailing,00,1,80,1,2,1,0.601,0,0,2,313,1,IN/Out,01,3,7,1,5,1,0.777,0,0,2,313,1,leading/trailing,00,1,908,1,2,1,0.885,0,0,3,313,1,IN/Out,01,1,326,1,4,0,0.744,0,0,3,313,1,IN/Out,01,4,30,2,5,1,0.811,0,0,2,313,1,leading/trailing,01,3,2,1,4,1,0.721,0,0,2,313,1,leading/trailing,01,3,79,1,4,1,0.56,0,0,3,313,1,leading/trailing,01,3,43,1,7,1,0.777,0,0,3,313,1,leading/trailing,01,4,80,2,6,1,0.961,0,0,2,313,1,leading/trailing,00,2,12,1,1,1,1.24,0,0,2,313,1,IN/Out,01,4,350,3,4,1,0.889,0,0,3,313,1,leading/trailing,01,4,80,2,4,1,0.724,0,0,2,313,1,leading/trailing,01,2,52,1,5,0,0.861,0,0,2,313,1,IN/Out,01,3,22,1,4,0,0.992,0,0,3,313,1,leading/trailing,01,1,373,3,3,1,1.05,0,0,3,313,1,IN/Out,01,2,17,1,6,1,1.11,0,0,2,313,1,IN/Out,01,1,36,1,5,1,0.772,0,0,2,313,1,IN/Out,01,4,80,2,7,1,0.797,0,0,2,313,1,leading/trailing,01,4,910,3,4,1,0.641,0,0,3,313,1,leading/trailing,01,2,568,2,7,1,1.02,0,0,3,313,1,IN/Out,01,4,60,2,4,1,0.859,0,0,2,313,1,leading/trailing,01,4,50,2,5,1,0.862,0,0,2,313,1,leading/trailing,00,2,1,2,1,1,1.03,0,0,2,313,1,IN/Out,01,1,351,1,5,1,1.28,0,0,3,313,1,IN/Out,01,2,447,3,6,1,1.18,0,0,3,313,1,IN/Out,01,4,260,3,6,1,2.61,0,0,3,313,1,leading/trailing,01,1,73,1,4,1,0.957,0,0,2,313,1,IN/Out,01,4,30,2,4,1,0.717,0,0,2,313,1,leading/trailing,01,1,685,1,3,1,1.09,0,0,3,313,1,IN/Out,01,4,10,2,5,1,0.888,0,0,2,313,1,leading/trailing,01,2,250,2,6,1,1.32,0,0,3,313,1,IN/Out,01,2,95,2,6,1,0.923,0,0,2,313,1,IN/Out,01,2,60,1,6,1,0.668,0,0,2,313,1,IN/Out,00,4,60,2,1,1,0.902,0,0,2,313,1,leading/trailing,00,1,896,3,2,1,0.664,0,0,3,313,1,IN/Out,01,3,2,1,5,1,0.771,0,0,2,313,1,leading/trailing,01,1,466,1,5,1,0.746,0,0,3,313,1,IN/Out,01,4,570,3,4,1,0.69,0,0,3,313,1,leading/trailing,00,2,372,3,1,1,0.74,0,0,3,313,1,IN/Out,01,3,74,1,7,1,0.862,0,0,3,313,1,leading/trailing,01,3,1,1,5,1,0.623,0,0,2,313,1,leading/trailing,01,2,93,2,7,1,0.895,0,0,2,313,1,IN/Out,01,1,128,1,3,1,0.663,0,0,3,313,1,IN/Out,01,4,920,3,6,1,1.52,0,0,3,313,1,leading/trailing,00,1,28,2,2,1,0.859,0,0,2,313,1,IN/Out,01,2,344,1,7,1,0.9,0,0,3,313,1,IN/Out,00,2,308,1,1,1,1.39,0,0,3,313,1,IN/Out,00,1,842,1,2,1,0.763,0,0,3,313,1,IN/Out,00,2,89,1,1,1,0.93,0,0,3,313,1,IN/Out,01,1,603,3,4,1,0.956,0,0,3,313,1,IN/Out,01,4,390,3,7,1,0.62,0,0,3,313,1,leading/trailing,01,3,44,1,7,0,0.76,0,0,3,313,1,leading/trailing,01,4,880,3,7,1,1.51,0,0,3,313,1,leading/trailing,01,3,1,1,6,1,1.03,0,0,2,313,1,leading/trailing,00,3,9,1,1,1,1.4,0,0,2,313,1,leading/trailing,01,2,679,1,6,1,1.64,0,0,3,313,1,IN/Out,01,3,57,1,7,1,1.06,0,0,3,313,1,leading/trailing,00,3,57,1,1,0,0.663,0,0,3,313,1,leading/trailing,00,3,8,1,1,1,0.88,0,0,2,313,1,leading/trailing,01,1,40,1,4,1,1.07,0,0,2,313,1,IN/Out,01,2,654,2,7,1,0.859,0,0,3,313,1,IN/Out,01,3,5,1,5,0,0.887,0,0,2,313,1,leading/trailing,01,4,140,3,4,1,1.11,0,0,3,313,1,leading/trailing,01,2,30,3,5,1,1.16,0,0,3,313,1,IN/Out,01,4,40,2,6,1,0.746,0,0,2,313,1,leading/trailing,00,4,750,3,1,1,0.93,0,0,3,313,1,leading/trailing,01,2,19,1,6,1,0.954,0,0,2,313,1,IN/Out,00,4,90,2,1,1,1.41,0,0,2,313,1,leading/trailing,01,2,501,2,4,1,0.967,0,0,3,313,1,IN/Out,01,1,309,1,5,1,0.667,0,0,3,313,1,IN/Out,01,3,92,1,7,1,2.44,0,0,3,314,1,leading/trailing,01,1,321,2,3,1,0.921,0,0,3,314,1,IN/Out,01,1,131,2,3,1,0.518,0,0,3,314,1,IN/Out,01,1,9,2,4,1,0.742,0,0,2,314,1,IN/Out,00,1,25,2,2,1,0.709,0,0,2,314,1,IN/Out,01,2,728,2,6,1,1.37,0,0,3,314,1,IN/Out,01,1,841,2,5,1,0.567,0,0,3,314,1,IN/Out,01,4,50,2,5,1,0.815,0,0,2,314,1,leading/trailing,01,4,10,2,6,1,0.948,0,0,2,314,1,leading/trailing,01,4,70,2,6,1,0.846,0,0,2,314,1,leading/trailing,01,4,10,2,7,1,0.818,0,0,2,314,1,leading/trailing,01,2,63,1,7,1,0.968,0,0,2,314,1,IN/Out,01,2,9,1,7,1,0.704,0,0,2,314,1,IN/Out,00,4,690,3,1,1,1.93,0,0,3,314,1,leading/trailing,01,2,9,1,6,1,0.89,0,0,2,314,1,IN/Out,01,1,748,3,4,1,0.788,0,0,3,314,1,IN/Out,01,1,15,1,3,1,0.803,0,0,2,314,1,IN/Out,01,1,824,1,4,1,0.714,0,0,3,314,1,IN/Out,01,2,274,2,7,1,0.804,0,0,3,314,1,IN/Out,01,2,24,1,6,1,1.05,0,0,2,314,1,IN/Out,01,4,560,3,4,1,0.519,0,0,3,314,1,leading/trailing,01,3,1,1,5,1,0.682,0,0,2,314,1,leading/trailing,00,2,822,2,1,1,1.96,0,0,3,314,1,IN/Out,01,4,50,2,5,1,0.691,0,0,2,314,1,leading/trailing,01,3,4,1,5,1,0.67,0,0,2,314,1,leading/trailing,00,4,20,2,1,1,1.4,0,0,2,314,1,leading/trailing,01,4,80,2,7,1,0.751,0,0,2,314,1,leading/trailing,01,2,353,2,6,1,0.704,0,0,3,314,1,IN/Out,01,2,349,1,7,1,0.873,0,0,3,314,1,IN/Out,01,1,831,1,5,1,1.35,0,0,3,314,1,IN/Out,01,1,223,1,3,1,0.989,0,0,3,314,1,IN/Out,00,4,30,2,1,1,1.53,0,0,2,314,1,leading/trailing,01,4,10,2,4,1,0.684,0,0,2,314,1,leading/trailing,01,3,56,1,5,1,0.757,0,0,3,314,1,leading/trailing,01,3,48,1,4,1,0.623,0,0,3,314,1,leading/trailing,00,3,45,1,1,1,2.08,0,0,3,314,1,leading/trailing,01,2,409,2,7,1,1.55,0,0,3,314,1,IN/Out,01,2,10,1,6,0,0.963,0,0,2,314,1,IN/Out,00,3,6,1,1,1,1.78,0,0,2,314,1,leading/trailing,01,4,170,3,5,1,0.88,0,0,3,314,1,leading/trailing,01,3,2,1,5,1,1.22,0,0,2,314,1,leading/trailing,00,2,36,1,1,1,2.51,0,0,2,314,1,IN/Out,01,1,25,1,4,1,0.796,0,0,2,314,1,IN/Out,01,2,518,1,6,1,0.775,0,0,3,314,1,IN/Out,00,4,40,2,1,1,1.08,0,0,2,314,1,leading/trailing,01,1,954,3,4,0,0.809,0,0,3,314,1,IN/Out,00,2,140,1,1,1,3.59,0,0,3,314,1,IN/Out,01,3,59,1,6,1,1.02,0,0,3,314,1,leading/trailing,00,1,571,2,2,1,0.76,0,0,3,314,1,IN/Out,00,2,84,2,1,1,1.1,0,0,2,314,1,IN/Out,00,1,557,2,2,1,1.84,0,0,3,314,1,IN/Out,01,3,1,1,4,1,0.841,0,0,2,314,1,leading/trailing,00,4,90,2,1,1,1.19,0,0,2,314,1,leading/trailing,01,2,23,1,6,1,1.08,0,0,2,314,1,IN/Out,01,2,388,2,7,1,0.932,0,0,3,314,1,IN/Out,01,3,32,1,4,1,1.17,0,0,3,314,1,leading/trailing,01,4,40,2,7,1,1.13,0,0,2,314,1,leading/trailing,01,4,370,3,4,1,0.954,0,0,3,314,1,leading/trailing,01,4,760,3,5,1,0.628,0,0,3,314,1,leading/trailing,01,2,24,1,6,1,1.05,0,0,2,314,1,IN/Out,01,2,26,2,7,1,0.724,0,0,2,314,1,IN/Out,01,3,1,1,7,1,0.797,0,0,2,314,1,leading/trailing,01,2,801,2,5,1,0.707,0,0,3,314,1,IN/Out,01,1,35,1,4,1,1.11,0,0,2,314,1,IN/Out,01,3,27,1,5,1,0.798,0,0,3,314,1,leading/trailing,00,2,479,1,1,1,1.64,0,0,3,314,1,IN/Out,01,4,280,3,4,1,0.767,0,0,3,314,1,leading/trailing,01,3,11,1,7,1,1.24,0,0,3,314,1,leading/trailing,01,1,56,2,3,1,0.851,0,0,2,314,1,IN/Out,00,2,20,1,1,1,0.629,0,0,2,314,1,IN/Out,00,1,91,1,2,1,0.652,0,0,2,314,1,IN/Out,01,3,32,1,4,1,0.719,0,0,3,314,1,leading/trailing,00,1,84,1,2,1,0.64,0,0,2,314,1,IN/Out,00,3,94,1,1,0,0.909,0,0,3,314,1,leading/trailing,00,4,750,3,1,1,0.517,0,0,3,314,1,leading/trailing,01,1,47,1,3,1,0.93,0,0,2,314,1,IN/Out,01,2,225,1,7,1,0.851,0,0,3,314,1,IN/Out,01,1,27,1,4,1,1.42,0,0,2,314,1,IN/Out,01,3,3,1,5,1,0.594,0,0,2,314,1,leading/trailing,00,1,27,2,2,1,1.07,0,0,2,314,1,IN/Out,01,3,53,1,4,1,0.731,0,0,3,314,1,leading/trailing,01,1,20,1,3,1,0.622,0,0,2,314,1,IN/Out,01,2,74,1,7,1,0.915,0,0,2,314,1,IN/Out,01,4,20,2,4,1,0.796,0,0,2,314,1,leading/trailing,01,4,770,3,7,1,0.561,0,0,3,314,1,leading/trailing,01,1,106,1,3,1,1.29,0,0,3,314,1,IN/Out,00,4,640,3,1,1,0.921,0,0,3,314,1,leading/trailing,01,3,7,1,6,1,0.819,0,0,2,314,1,leading/trailing,01,4,710,3,7,1,0.79,0,0,3,314,1,leading/trailing,00,2,803,3,1,1,7.67,0,0,3,314,1,IN/Out,00,1,156,3,2,1,0.53,0,0,3,314,1,IN/Out,01,4,930,3,6,1,1.14,0,0,3,314,1,leading/trailing,00,4,130,3,1,1,0.937,0,0,3,314,1,leading/trailing,01,4,960,3,7,1,1.08,0,0,3,314,1,leading/trailing,01,4,850,3,6,1,1.84,0,0,3,314,1,leading/trailing,01,1,99,1,3,1,1,0,0,2,314,1,IN/Out,01,3,18,1,6,1,0.884,0,0,3,314,1,leading/trailing,01,3,85,1,7,1,1.55,0,0,3,314,1,leading/trailing,00,3,92,1,1,1,1.32,0,0,3,314,1,leading/trailing,00,2,20,1,1,1,0.863,0,0,2,314,1,IN/Out,01,4,70,2,7,1,1.53,0,0,2,314,1,leading/trailing,01,1,29,2,6,1,0.865,0,0,2,314,1,IN/Out,01,4,710,3,7,1,1.4,0,0,3,314,1,leading/trailing,01,3,5,1,5,1,0.745,0,0,2,314,1,leading/trailing,01,2,900,2,7,1,0.847,0,0,3,314,1,IN/Out,01,2,674,2,7,1,1.08,0,0,3,314,1,IN/Out,01,3,4,1,6,1,0.728,0,0,2,314,1,leading/trailing,01,2,80,2,7,1,0.648,0,0,2,314,1,IN/Out,01,3,6,1,7,1,0.779,0,0,2,314,1,leading/trailing,01,2,81,2,5,1,0.907,0,0,2,314,1,IN/Out,01,4,110,3,5,1,1.19,0,0,3,314,1,leading/trailing,00,3,7,1,1,1,1.84,0,0,2,314,1,leading/trailing,01,4,70,2,5,1,1.46,0,0,2,314,1,leading/trailing,01,3,2,1,4,1,1.16,0,0,2,314,1,leading/trailing,01,3,92,1,6,0,0.892,0,0,3,314,1,leading/trailing,00,3,27,1,1,1,3.74,0,0,3,314,1,leading/trailing,00,3,8,1,1,1,0.634,0,0,2,314,1,leading/trailing,01,1,281,2,3,1,1.65,0,0,3,314,1,IN/Out,00,3,3,1,1,1,1.1,0,0,2,314,1,leading/trailing,00,1,46,3,2,1,0.906,0,0,3,314,1,IN/Out,01,1,720,2,3,1,1.51,0,0,3,314,1,IN/Out,01,2,57,1,7,1,1.72,0,0,2,314,1,IN/Out,01,1,45,1,5,1,0.889,0,0,2,314,1,IN/Out,01,4,70,2,5,1,0.518,0,0,2,314,1,leading/trailing,01,1,36,1,5,1,0.759,0,0,2,314,1,IN/Out,01,3,7,1,7,1,0.943,0,0,2,314,1,leading/trailing,01,1,175,2,3,1,0.828,0,0,3,314,1,IN/Out,01,2,95,1,4,1,0.688,0,0,3,314,1,IN/Out,01,1,97,3,3,1,3.45,0,0,3,315,1,IN/Out,21,1,899,3,5,1,0.776,0,0,3,315,1,IN/Out,21,2,70,2,7,1,1.59,0,0,2,315,1,IN/Out,20,1,37,2,2,1,0.849,0,0,2,315,1,IN/Out,21,3,3,1,7,1,1.54,0,0,2,315,1,leading/trailing,20,2,842,2,1,1,0.856,0,0,3,315,1,IN/Out,21,2,53,1,7,1,0.888,0,0,2,315,1,IN/Out,21,4,320,3,6,1,0.789,0,0,3,315,1,leading/trailing,21,3,3,1,7,1,2.41,0,0,2,315,1,leading/trailing,21,1,71,1,4,1,1.19,0,0,2,315,1,IN/Out,21,2,920,2,7,1,1.33,0,0,3,315,1,IN/Out,21,4,920,3,5,1,0.767,0,0,3,315,1,leading/trailing,21,2,24,1,7,1,1.98,0,0,2,315,1,IN/Out,20,3,3,1,1,1,1.52,0,0,2,315,1,leading/trailing,20,1,87,1,2,1,1.09,0,0,2,315,1,IN/Out,21,1,73,2,5,1,1.22,0,0,2,315,1,IN/Out,21,4,90,2,4,1,0.934,0,0,2,315,1,leading/trailing,21,2,935,3,4,1,0.888,0,0,3,315,1,IN/Out,21,4,240,3,4,1,0.74,0,0,3,315,1,leading/trailing,21,2,12,1,5,1,0.871,0,0,2,315,1,IN/Out,21,1,215,1,3,1,0.955,0,0,3,315,1,IN/Out,21,3,28,1,7,1,1.2,0,0,3,315,1,leading/trailing,20,4,940,3,1,1,0.814,0,0,3,315,1,leading/trailing,20,4,90,2,1,1,1.16,0,0,2,315,1,leading/trailing,20,1,700,1,2,1,1.53,0,0,3,315,1,IN/Out,21,4,50,2,6,1,1.32,0,0,2,315,1,leading/trailing,21,2,63,2,7,1,1.36,0,0,2,315,1,IN/Out,20,3,51,1,1,1,1.83,0,0,3,315,1,leading/trailing,20,1,219,3,2,1,0.799,0,0,3,315,1,IN/Out,21,2,61,2,6,1,1.08,0,0,3,315,1,IN/Out,21,2,99,1,7,1,2.23,0,0,3,315,1,IN/Out,20,4,10,2,1,1,1.39,0,0,2,315,1,leading/trailing,21,4,290,3,5,1,1.02,0,0,3,315,1,leading/trailing,21,1,364,1,4,1,1.02,0,0,3,315,1,IN/Out,21,4,110,3,6,1,0.76,0,0,3,315,1,leading/trailing,21,1,537,2,3,1,0.713,0,0,3,315,1,IN/Out,21,4,890,3,7,1,1.13,0,0,3,315,1,leading/trailing,21,3,1,1,6,1,1.07,0,0,2,315,1,leading/trailing,21,4,740,3,7,1,0.939,0,0,3,315,1,leading/trailing,21,3,94,1,7,1,1.99,0,0,3,315,1,leading/trailing,21,1,944,1,4,1,0.949,0,0,3,315,1,IN/Out,20,1,69,2,2,1,1.19,0,0,2,315,1,IN/Out,20,1,61,1,2,1,0.786,0,0,2,315,1,IN/Out,21,2,959,2,4,1,1.26,0,0,3,315,1,IN/Out,21,1,58,2,4,1,0.676,0,0,2,315,1,IN/Out,21,1,38,2,3,1,0.534,0,0,2,315,1,IN/Out,21,2,902,3,6,1,0.891,0,0,3,315,1,IN/Out,21,2,81,2,6,1,0.824,0,0,2,315,1,IN/Out,21,3,6,1,6,1,0.879,0,0,2,315,1,leading/trailing,21,4,260,3,6,1,2.64,0,0,3,315,1,leading/trailing,21,3,36,1,7,1,3.42,0,0,3,315,1,leading/trailing,20,4,560,3,1,1,0.854,0,0,3,315,1,leading/trailing,21,1,18,1,3,1,0.971,0,0,2,315,1,IN/Out,20,4,20,2,1,1,2.59,0,0,2,315,1,leading/trailing,21,4,80,2,4,1,0.749,0,0,2,315,1,leading/trailing,21,1,70,1,4,1,1.53,0,0,2,315,1,IN/Out,21,2,55,1,7,1,0.907,0,0,2,315,1,IN/Out,20,2,41,1,1,1,1.29,0,0,2,315,1,IN/Out,20,1,911,1,2,1,0.912,0,0,3,315,1,IN/Out,21,3,7,1,7,1,1.2,0,0,2,315,1,leading/trailing,20,3,38,1,1,0,1.47,0,0,3,315,1,leading/trailing,21,3,2,1,7,1,2.53,0,0,2,315,1,leading/trailing,21,3,85,1,7,1,1.28,0,0,3,315,1,leading/trailing,21,3,78,1,6,1,1.24,0,0,3,315,1,leading/trailing,21,1,22,2,3,1,0.843,0,0,2,315,1,IN/Out,20,2,14,1,1,1,1.43,0,0,3,315,1,IN/Out,21,2,14,1,6,1,1.1,0,0,2,315,1,IN/Out,21,4,110,3,6,1,1.89,0,0,3,315,1,leading/trailing,21,1,74,1,4,1,0.807,0,0,2,315,1,IN/Out,21,3,92,1,5,1,0.695,0,0,3,315,1,leading/trailing,21,1,14,2,5,1,0.682,0,0,2,315,1,IN/Out,21,3,1,1,5,1,1.17,0,0,2,315,1,leading/trailing,21,3,31,1,4,1,0.722,0,0,3,315,1,leading/trailing,21,2,72,2,6,1,1.27,0,0,2,315,1,IN/Out,21,3,16,1,5,1,0.747,0,0,3,315,1,leading/trailing,21,3,3,1,6,1,0.884,0,0,2,315,1,leading/trailing,21,4,20,2,6,1,0.759,0,0,2,315,1,leading/trailing,21,4,680,3,7,1,1.44,0,0,3,315,1,leading/trailing,21,4,70,2,7,1,0.882,0,0,2,315,1,leading/trailing,21,3,9,1,7,1,0.867,0,0,2,315,1,leading/trailing,21,3,7,1,4,1,0.903,0,0,2,315,1,leading/trailing,21,3,58,1,7,1,0.993,0,0,3,315,1,leading/trailing,21,1,785,1,3,1,0.872,0,0,3,315,1,IN/Out,20,4,30,2,1,1,0.835,0,0,2,315,1,leading/trailing,20,1,777,3,2,1,0.973,0,0,3,315,1,IN/Out,20,3,52,1,1,1,0.884,0,0,3,315,1,leading/trailing,20,2,60,2,1,1,0.769,0,0,2,315,1,IN/Out,20,3,1,1,1,1,1.34,0,0,2,315,1,leading/trailing,21,4,690,3,4,1,0.654,0,0,3,315,1,leading/trailing,21,3,67,1,4,1,0.683,0,0,3,315,1,leading/trailing,21,1,36,1,5,1,0.958,0,0,2,315,1,IN/Out,21,4,60,2,4,1,1.57,0,0,2,315,1,leading/trailing,20,2,93,2,1,1,0.876,0,0,2,315,1,IN/Out,20,2,50,2,1,1,1.16,0,0,2,315,1,IN/Out,21,2,57,1,7,1,1.45,0,0,2,315,1,IN/Out,21,4,90,2,7,1,0.771,0,0,2,315,1,leading/trailing,20,2,224,1,1,1,1.89,0,0,3,315,1,IN/Out,21,1,28,2,4,1,0.797,0,0,2,315,1,IN/Out,21,4,40,2,6,1,0.827,0,0,2,315,1,leading/trailing,21,1,236,2,3,1,0.712,0,0,3,315,1,IN/Out,21,1,312,2,3,1,0.809,0,0,3,315,1,IN/Out,21,2,15,3,6,1,0.92,0,0,3,315,1,IN/Out,20,2,305,2,1,1,1.2,0,0,3,315,1,IN/Out,20,4,650,3,1,1,1.01,0,0,3,315,1,leading/trailing,21,2,410,2,6,1,0.778,0,0,3,315,1,IN/Out,21,1,113,3,4,1,1.07,0,0,3,315,1,IN/Out,21,1,773,1,4,1,0.82,0,0,3,315,1,IN/Out,21,2,28,1,7,1,0.803,0,0,2,315,1,IN/Out,20,3,8,1,1,1,1.14,0,0,2,315,1,leading/trailing,21,3,14,1,7,1,1.05,0,0,3,315,1,leading/trailing,21,1,72,1,3,1,2.34,0,0,2,315,1,IN/Out,21,2,164,2,6,1,0.74,0,0,3,315,1,IN/Out,20,3,89,1,1,1,2.39,0,0,3,315,1,leading/trailing,21,2,70,1,6,1,1.4,0,0,3,315,1,IN/Out,21,3,24,1,4,1,0.944,0,0,3,315,1,leading/trailing,20,3,6,1,1,1,1.22,0,0,2,315,1,leading/trailing,21,2,21,1,6,1,1.65,0,0,2,315,1,IN/Out,21,3,9,1,7,1,1.46,0,0,2,315,1,leading/trailing,21,4,970,3,6,1,2.05,0,0,3,315,1,leading/trailing,21,2,522,2,7,1,0.913,0,0,3,315,1,IN/Out,21,4,70,2,4,1,0.835,0,0,2,315,1,leading/trailing,21,4,70,2,4,1,0.832,0,0,2,315,1,leading/trailing,20,4,960,3,1,1,1.44,0,0,3,315,1,leading/trailing,21,1,606,3,3,1,0.872,0,0,3,315,1,IN/Out,21,4,50,2,5,1,0.916,0,0,2,315,1,leading/trailing,21,3,2,1,7,1,1.53,0,0,2,315,1,leading/trailing,21,2,358,2,7,1,0.805,0,0,3,315,1,IN/Out,21,4,30,2,6,1,0.772,0,0,2,315,1,leading/trailing,20,4,990,3,1,1,3.36,0,0,3,316,1,leading/trailing,01,1,519,3,6,1,1.68,0,0,3,316,1,IN/Out,00,4,440,3,1,1,1.24,0,0,3,316,1,leading/trailing,00,2,90,2,1,1,1.34,0,0,2,316,1,IN/Out,01,2,545,1,5,1,1.59,0,0,3,316,1,IN/Out,01,2,33,2,7,1,1.57,0,0,2,316,1,IN/Out,01,2,46,2,5,1,1.1,0,0,2,316,1,IN/Out,00,3,81,1,1,1,1.1,0,0,3,316,1,leading/trailing,01,4,870,3,5,1,1.46,0,0,3,316,1,leading/trailing,01,3,15,1,4,1,1.21,0,0,3,316,1,leading/trailing,01,1,335,2,4,1,0.931,0,0,3,316,1,IN/Out,01,4,720,3,7,1,1.3,0,0,3,316,1,leading/trailing,01,4,10,2,7,1,1.27,0,0,2,316,1,leading/trailing,01,2,730,2,7,1,1.28,0,0,3,316,1,IN/Out,01,4,20,2,5,1,1.27,0,0,2,316,1,leading/trailing,00,3,9,1,1,1,1.03,0,0,2,316,1,leading/trailing,01,1,160,2,3,1,1,0,0,3,316,1,IN/Out,01,3,4,1,5,1,1.18,0,0,2,316,1,leading/trailing,01,3,6,1,5,1,1.25,0,0,2,316,1,leading/trailing,01,1,568,3,4,1,0.898,0,0,3,316,1,IN/Out,00,4,780,3,1,1,1.63,0,0,3,316,1,leading/trailing,01,3,3,1,6,1,1.02,0,0,2,316,1,leading/trailing,00,4,140,3,1,1,1.77,0,0,3,316,1,leading/trailing,01,2,276,1,6,1,1.31,0,0,3,316,1,IN/Out,00,4,30,2,1,1,1.43,0,0,2,316,1,leading/trailing,01,2,43,2,7,1,1.46,0,0,2,316,1,IN/Out,01,2,69,1,5,1,1.03,0,0,2,316,1,IN/Out,01,3,2,1,5,1,1.7,0,0,2,316,1,leading/trailing,00,3,3,1,1,1,1.03,0,0,2,316,1,leading/trailing,01,2,825,3,5,1,1.39,0,0,3,316,1,IN/Out,01,2,357,2,6,1,1.33,0,0,3,316,1,IN/Out,01,2,186,1,7,1,1.85,0,0,3,316,1,IN/Out,01,2,815,2,5,1,0.997,0,0,3,316,1,IN/Out,01,4,80,2,4,1,0.739,0,0,2,316,1,leading/trailing,00,1,384,2,2,1,1.15,0,0,3,316,1,IN/Out,00,1,50,1,2,1,0.828,0,0,2,316,1,IN/Out,01,2,725,1,6,1,1.18,0,0,3,316,1,IN/Out,01,1,86,1,5,1,1.04,0,0,2,316,1,IN/Out,01,1,67,1,3,1,1.04,0,0,2,316,1,IN/Out,01,3,34,1,6,1,1.24,0,0,3,316,1,leading/trailing,01,1,700,1,4,1,0.986,0,0,3,316,1,IN/Out,00,1,366,2,2,1,0.968,0,0,3,316,1,IN/Out,01,1,38,2,5,1,1.05,0,0,2,316,1,IN/Out,00,3,62,1,1,1,1.18,0,0,3,316,1,leading/trailing,01,2,33,1,7,1,1.48,0,0,2,316,1,IN/Out,00,2,44,2,1,1,1.17,0,0,2,316,1,IN/Out,01,1,551,3,3,1,1.05,0,0,3,316,1,IN/Out,01,3,4,1,4,1,1.02,0,0,2,316,1,leading/trailing,01,1,944,1,3,1,0.868,0,0,3,316,1,IN/Out,00,3,12,1,1,1,1.25,0,0,3,316,1,leading/trailing,01,4,30,2,4,1,1.14,0,0,2,316,1,leading/trailing,01,4,10,2,6,1,1.34,0,0,2,316,1,leading/trailing,01,1,7,2,4,1,0.97,0,0,2,316,1,IN/Out,00,2,741,3,1,1,1.1,0,0,3,316,1,IN/Out,00,4,20,2,1,1,0.869,0,0,2,316,1,leading/trailing,01,2,15,2,5,1,1.32,0,0,2,316,1,IN/Out,00,1,36,2,2,1,1.1,0,0,2,316,1,IN/Out,01,3,8,1,5,1,1.51,0,0,2,316,1,leading/trailing,01,4,240,3,5,1,2,0,0,3,316,1,leading/trailing,00,2,381,3,1,1,1.12,0,0,3,316,1,IN/Out,01,4,30,2,6,1,1.29,0,0,2,316,1,leading/trailing,01,1,98,1,3,1,1.04,0,0,2,316,1,IN/Out,01,3,5,1,7,1,1.56,0,0,2,316,1,leading/trailing,01,3,98,1,5,1,1.06,0,0,3,316,1,leading/trailing,00,2,335,2,1,1,1.13,0,0,3,316,1,IN/Out,01,3,15,1,5,1,1.04,0,0,3,316,1,leading/trailing,01,2,7,1,5,1,1.05,0,0,2,316,1,IN/Out,01,3,2,1,7,1,1.09,0,0,2,316,1,leading/trailing,01,2,276,1,7,1,1.17,0,0,3,316,1,IN/Out,01,4,10,2,6,1,1.24,0,0,2,316,1,leading/trailing,01,3,58,1,6,1,0.884,0,0,3,316,1,leading/trailing,01,3,5,1,7,1,0.881,0,0,2,316,1,leading/trailing,01,2,23,1,7,1,0.867,0,0,2,316,1,IN/Out,01,3,9,1,7,1,0.776,0,0,2,316,1,leading/trailing,01,4,220,3,5,1,1.78,0,0,3,316,1,leading/trailing,01,2,19,1,6,1,0.883,0,0,2,316,1,IN/Out,01,1,34,1,4,1,0.701,0,0,2,316,1,IN/Out,01,1,61,2,3,1,0.799,0,0,2,316,1,IN/Out,01,1,3,2,3,1,0.846,0,0,2,316,1,IN/Out,01,1,749,3,3,1,0.96,0,0,3,316,1,IN/Out,01,3,1,1,7,1,0.874,0,0,2,316,1,leading/trailing,01,1,80,1,3,1,0.677,0,0,2,316,1,IN/Out,00,4,50,2,1,1,1.91,0,0,2,316,1,leading/trailing,01,3,18,1,5,1,1.08,0,0,3,316,1,leading/trailing,01,4,210,3,4,1,0.925,0,0,3,316,1,leading/trailing,00,4,70,2,1,1,1.98,0,0,2,316,1,leading/trailing,01,3,9,1,4,1,0.709,0,0,2,316,1,leading/trailing,01,4,770,3,6,1,1.5,0,0,3,316,1,leading/trailing,01,1,369,3,3,1,0.734,0,0,3,316,1,IN/Out,01,3,41,1,6,1,1.23,0,0,3,316,1,leading/trailing,01,1,630,2,4,1,0.985,0,0,3,316,1,IN/Out,01,3,37,1,7,1,1.57,0,0,3,316,1,leading/trailing,01,1,77,2,4,1,0.942,0,0,2,316,1,IN/Out,01,2,633,1,5,1,1.35,0,0,3,316,1,IN/Out,00,1,75,1,2,1,0.686,0,0,2,316,1,IN/Out,00,3,1,1,1,1,0.617,0,0,2,316,1,leading/trailing,01,3,62,1,6,1,1.23,0,0,3,316,1,leading/trailing,01,2,126,1,7,1,0.954,0,0,3,316,1,IN/Out,01,4,440,3,7,1,0.873,0,0,3,316,1,leading/trailing,01,2,33,1,7,1,0.7,0,0,2,316,1,IN/Out,01,4,250,3,5,1,0.83,0,0,3,316,1,leading/trailing,01,4,70,2,6,1,0.849,0,0,2,316,1,leading/trailing,00,1,99,2,2,1,0.966,0,0,2,316,1,IN/Out,00,2,235,2,1,1,1.04,0,0,3,316,1,IN/Out,01,1,70,1,4,1,0.681,0,0,2,316,1,IN/Out,01,4,440,3,5,1,0.883,0,0,3,316,1,leading/trailing,01,1,91,1,6,1,0.702,0,0,2,316,1,IN/Out,01,3,79,1,4,1,0.736,0,0,3,316,1,leading/trailing,01,2,86,2,6,1,1.55,0,0,2,316,1,IN/Out,01,1,38,2,3,1,0.743,0,0,3,316,1,IN/Out,01,3,79,1,4,1,0.959,0,0,3,316,1,leading/trailing,01,4,190,3,7,1,0.932,0,0,3,316,1,leading/trailing,01,4,470,3,7,1,0.886,0,0,3,316,1,leading/trailing,00,3,43,1,1,1,1.15,0,0,3,316,1,leading/trailing,01,1,741,1,3,1,0.574,0,0,3,316,1,IN/Out,00,1,808,1,2,1,0.839,0,0,3,316,1,IN/Out,01,4,40,2,4,1,0.852,0,0,2,316,1,leading/trailing,01,4,80,2,4,1,0.737,0,0,2,316,1,leading/trailing,00,3,5,1,1,1,1.46,0,0,2,316,1,leading/trailing,01,4,230,3,6,1,1.14,0,0,3,316,1,leading/trailing,01,4,70,2,5,1,0.6,0,0,2,316,1,leading/trailing,01,2,359,2,5,1,0.631,0,0,3,316,1,IN/Out,01,3,87,1,7,1,2.23,0,0,3,316,1,leading/trailing,00,2,27,1,1,1,0.677,0,0,2,316,1,IN/Out,01,2,93,2,7,1,0.986,0,0,2,316,1,IN/Out,01,4,80,2,6,1,0.68,0,0,2,316,1,leading/trailing,00,2,52,2,1,1,0.739,0,0,2,316,1,IN/Out,00,1,713,1,2,1,0.875,0,0,3,316,1,IN/Out,01,4,70,2,7,1,1.43,0,0,2,317,1,leading/trailing,01,3,43,1,6,1,0.742,0,0,3,317,1,leading/trailing,01,3,9,1,6,1,0.593,0,0,2,317,1,leading/trailing,01,2,23,1,7,1,0.799,0,0,2,317,1,IN/Out,01,1,706,1,4,1,0.862,0,0,3,317,1,IN/Out,01,3,9,1,4,1,0.675,0,0,2,317,1,leading/trailing,01,1,1,2,3,1,0.878,0,0,2,317,1,IN/Out,01,2,34,1,7,1,0.858,0,0,2,317,1,IN/Out,00,1,69,3,2,1,0.926,0,0,3,317,1,IN/Out,00,4,80,2,1,1,0.623,0,0,2,317,1,leading/trailing,01,2,787,1,6,1,0.765,0,0,3,317,1,IN/Out,00,2,261,1,1,1,1.19,0,0,3,317,1,IN/Out,01,4,480,3,6,1,1.52,0,0,3,317,1,leading/trailing,01,3,4,1,5,1,0.772,0,0,2,317,1,leading/trailing,01,4,720,3,7,1,0.764,0,0,3,317,1,leading/trailing,00,3,12,1,1,0,0.908,0,0,3,317,1,leading/trailing,01,3,62,1,4,1,1.79,0,0,3,317,1,leading/trailing,01,4,380,3,6,1,1.04,0,0,3,317,1,leading/trailing,00,1,734,1,2,1,0.727,0,0,3,317,1,IN/Out,01,1,88,1,5,1,0.792,0,0,2,317,1,IN/Out,01,2,4,1,4,1,0.879,0,0,2,317,1,IN/Out,00,3,3,1,1,1,0.802,0,0,2,317,1,leading/trailing,01,3,7,1,5,1,0.938,0,0,2,317,1,leading/trailing,01,1,4,2,5,1,0.714,0,0,2,317,1,IN/Out,01,2,750,3,7,1,0.819,0,0,3,317,1,IN/Out,01,4,60,2,7,1,0.659,0,0,2,317,1,leading/trailing,01,3,7,1,7,1,0.733,0,0,2,317,1,leading/trailing,01,2,96,2,5,1,0.857,0,0,2,317,1,IN/Out,01,1,10,1,3,1,0.756,0,0,2,317,1,IN/Out,00,4,20,2,1,1,2.22,0,0,2,317,1,leading/trailing,00,2,34,2,1,1,0.713,0,0,2,317,1,IN/Out,01,1,753,1,3,1,0.73,0,0,3,317,1,IN/Out,01,1,70,1,4,1,0.684,0,0,2,317,1,IN/Out,01,1,26,2,3,1,0.726,0,0,2,317,1,IN/Out,00,4,540,3,1,1,1.54,0,0,3,317,1,leading/trailing,00,1,45,2,2,1,0.927,0,0,2,317,1,IN/Out,01,3,56,1,7,1,1.04,0,0,3,317,1,leading/trailing,01,3,8,1,6,1,0.796,0,0,2,317,1,leading/trailing,01,1,595,2,6,1,0.67,0,0,3,317,1,IN/Out,01,2,529,1,6,1,0.818,0,0,3,317,1,IN/Out,01,1,1,2,3,1,0.97,0,0,2,317,1,IN/Out,01,2,81,2,7,1,0.743,0,0,2,317,1,IN/Out,01,4,10,2,5,1,0.745,0,0,2,317,1,leading/trailing,01,2,984,2,7,1,0.704,0,0,3,317,1,IN/Out,01,4,70,2,4,1,0.618,0,0,2,317,1,leading/trailing,01,4,350,3,5,1,0.639,0,0,3,317,1,leading/trailing,01,3,29,1,5,1,0.717,0,0,3,317,1,leading/trailing,01,3,1,1,5,1,0.735,0,0,2,317,1,leading/trailing,01,2,513,1,7,1,0.927,0,0,3,317,1,IN/Out,01,3,4,1,5,1,0.648,0,0,2,317,1,leading/trailing,01,2,350,3,7,1,0.819,0,0,3,317,1,IN/Out,00,2,123,3,1,1,0.977,0,0,3,317,1,IN/Out,01,2,69,1,5,1,0.992,0,0,2,317,1,IN/Out,01,4,250,3,6,1,0.797,0,0,3,317,1,leading/trailing,00,4,760,3,1,1,1.49,0,0,3,317,1,leading/trailing,01,1,268,3,3,1,0.7,0,0,3,317,1,IN/Out,01,4,640,3,4,1,0.598,0,0,3,317,1,leading/trailing,01,1,98,2,4,1,0.877,0,0,2,317,1,IN/Out,01,1,895,2,5,1,0.742,0,0,3,317,1,IN/Out,01,3,83,1,6,1,0.718,0,0,3,317,1,leading/trailing,01,2,761,2,6,1,0.639,0,0,3,317,1,IN/Out,01,4,60,2,4,1,0.678,0,0,2,317,1,leading/trailing,00,2,11,3,1,1,0.872,0,0,3,317,1,IN/Out,01,4,60,2,4,1,0.652,0,0,2,317,1,leading/trailing,01,3,32,1,5,1,0.895,0,0,3,317,1,leading/trailing,01,2,364,2,6,1,0.633,0,0,3,317,1,IN/Out,00,3,1,1,1,1,1.01,0,0,2,317,1,leading/trailing,00,2,61,2,1,1,0.819,0,0,2,317,1,IN/Out,01,2,8,2,7,1,0.921,0,0,3,317,1,IN/Out,01,4,940,3,5,1,0.568,0,0,3,317,1,leading/trailing,01,4,50,2,6,1,0.705,0,0,2,317,1,leading/trailing,01,1,38,2,5,1,0.7,0,0,2,317,1,IN/Out,00,1,96,1,2,1,0.557,0,0,2,317,1,IN/Out,01,4,390,3,5,1,1.11,0,0,3,317,1,leading/trailing,01,1,196,2,6,1,0.533,0,0,3,317,1,IN/Out,01,1,20,1,4,0,0.695,0,0,2,317,1,IN/Out,01,2,85,2,7,0,1.02,0,0,2,317,1,IN/Out,01,2,6,1,6,1,1.41,0,0,2,317,1,IN/Out,01,4,50,2,7,1,0.543,0,0,2,317,1,leading/trailing,01,4,380,3,7,1,0.791,0,0,3,317,1,leading/trailing,01,4,60,2,6,1,0.942,0,0,2,317,1,leading/trailing,00,1,64,1,2,1,0.996,0,0,2,317,1,IN/Out,01,4,470,3,6,1,1.98,0,0,3,317,1,leading/trailing,01,3,99,1,4,1,0.709,0,0,3,317,1,leading/trailing,01,3,5,1,5,1,0.518,0,0,2,317,1,leading/trailing,01,2,62,2,7,1,0.753,0,0,2,317,1,IN/Out,01,1,201,1,4,1,0.618,0,0,3,317,1,IN/Out,00,4,20,2,1,1,1.61,0,0,2,317,1,leading/trailing,00,4,360,3,1,1,0.532,0,0,3,317,1,leading/trailing,00,4,820,3,1,1,0.677,0,0,3,317,1,leading/trailing,00,3,41,1,1,1,0.6,0,0,3,317,1,leading/trailing,01,1,802,1,3,1,1.22,0,0,3,317,1,IN/Out,01,3,1,1,6,1,0.713,0,0,2,317,1,leading/trailing,00,4,30,2,1,1,2.04,0,0,2,317,1,leading/trailing,01,4,70,2,7,1,1.09,0,0,2,317,1,leading/trailing,01,2,289,1,6,1,1.46,0,0,3,317,1,IN/Out,00,3,19,1,1,1,1.09,0,0,3,317,1,leading/trailing,01,2,82,2,7,1,1.03,0,0,2,317,1,IN/Out,01,2,48,2,7,1,0.598,0,0,2,317,1,IN/Out,01,4,810,3,5,1,2.22,0,0,3,317,1,leading/trailing,00,1,945,1,2,1,1.17,0,0,3,317,1,IN/Out,01,3,16,1,6,0,0.95,0,0,3,317,1,leading/trailing,01,3,75,1,5,1,1.61,0,0,3,317,1,leading/trailing,01,3,37,1,5,1,0.849,0,0,3,317,1,leading/trailing,01,1,350,1,3,1,0.853,0,0,3,317,1,IN/Out,01,1,25,1,4,1,0.92,0,0,2,317,1,IN/Out,01,2,681,1,7,1,0.779,0,0,3,317,1,IN/Out,00,2,51,2,1,1,1.74,0,0,2,317,1,IN/Out,01,3,9,1,4,1,0.729,0,0,2,317,1,leading/trailing,00,3,65,1,1,1,0.641,0,0,3,317,1,leading/trailing,01,4,50,2,7,1,0.742,0,0,2,317,1,leading/trailing,00,1,118,3,2,1,1.26,0,0,3,317,1,IN/Out,00,1,48,2,2,1,0.791,0,0,2,317,1,IN/Out,01,2,224,2,6,1,1.27,0,0,3,317,1,IN/Out,01,1,81,1,5,1,0.937,0,0,2,317,1,IN/Out,00,3,9,1,1,1,0.689,0,0,2,317,1,leading/trailing,01,4,30,2,7,1,0.651,0,0,2,317,1,leading/trailing,01,3,9,1,7,0,0.687,0,0,2,317,1,leading/trailing,01,4,530,3,6,1,1.4,0,0,3,317,1,leading/trailing,00,2,296,1,1,1,1.8,0,0,3,317,1,IN/Out,01,1,307,3,3,1,1.69,0,0,3,317,1,IN/Out,00,3,2,1,1,1,0.837,0,0,2,317,1,leading/trailing,01,3,71,1,4,1,0.847,0,0,3,317,1,leading/trailing,01,2,80,2,6,1,0.788,0,0,2,317,1,IN/Out,00,2,80,2,1,1,1.48,0,0,2,317,1,IN/Out,01,3,48,1,7,1,1.25,0,0,3,317,1,leading/trailing,01,1,676,3,3,1,1.18,0,0,3,317,1,IN/Out,01,1,348,1,5,1,0.99,0,0,3,317,1,IN/Out,00,2,71,2,1,1,2.92,0,0,2,318,1,IN/Out,10,4,60,2,1,1,1.18,0,0,2,318,1,leading/trailing,10,1,501,1,2,1,1.27,0,0,3,318,1,IN/Out,11,3,4,1,7,1,1.27,0,0,2,318,1,leading/trailing,11,2,95,2,5,1,0.827,0,0,2,318,1,IN/Out,11,4,140,3,6,1,1.49,0,0,3,318,1,leading/trailing,10,1,360,2,2,1,0.935,0,0,3,318,1,IN/Out,10,2,761,3,1,1,0.728,0,0,3,318,1,IN/Out,11,4,310,3,7,1,1.19,0,0,3,318,1,leading/trailing,11,4,310,3,7,1,1.34,0,0,3,318,1,leading/trailing,11,1,4,2,3,1,0.965,0,0,2,318,1,IN/Out,11,3,55,1,7,1,0.753,0,0,3,318,1,leading/trailing,11,1,66,1,3,1,1.17,0,0,2,318,1,IN/Out,11,4,230,3,5,1,0.896,0,0,3,318,1,leading/trailing,11,2,199,1,7,1,0.884,0,0,3,318,1,IN/Out,11,3,9,1,5,1,1.01,0,0,2,318,1,leading/trailing,11,1,831,1,3,1,0.855,0,0,3,318,1,IN/Out,11,1,575,2,3,1,0.784,0,0,3,318,1,IN/Out,11,1,37,2,3,1,0.679,0,0,2,318,1,IN/Out,11,2,59,1,4,1,0.626,0,0,2,318,1,IN/Out,10,2,11,1,1,1,1.44,0,0,2,318,1,IN/Out,10,4,20,2,1,1,1.26,0,0,2,318,1,leading/trailing,11,1,821,2,3,1,1.01,0,0,3,318,1,IN/Out,11,1,309,1,5,1,0.996,0,0,3,318,1,IN/Out,11,3,3,1,7,1,0.917,0,0,2,318,1,leading/trailing,11,4,520,3,7,1,0.677,0,0,3,318,1,leading/trailing,11,1,413,2,3,1,0.571,0,0,3,318,1,IN/Out,11,1,85,1,3,1,0.979,0,0,2,318,1,IN/Out,10,1,153,2,2,1,0.651,0,0,3,318,1,IN/Out,10,4,20,2,1,1,0.705,0,0,2,318,1,leading/trailing,10,1,953,2,2,1,0.669,0,0,3,318,1,IN/Out,10,1,51,1,2,1,0.993,0,0,2,318,1,IN/Out,11,4,90,2,7,1,0.586,0,0,2,318,1,leading/trailing,11,4,70,2,5,1,1.13,0,0,2,318,1,leading/trailing,11,2,47,2,6,1,0.771,0,0,2,318,1,IN/Out,11,4,80,2,5,1,0.859,0,0,2,318,1,leading/trailing,11,1,786,3,3,1,0.646,0,0,3,318,1,IN/Out,11,3,18,1,4,1,0.658,0,0,3,318,1,leading/trailing,11,4,310,3,6,1,0.92,0,0,3,318,1,leading/trailing,10,4,180,3,1,1,0.841,0,0,3,318,1,leading/trailing,11,2,76,2,7,1,0.999,0,0,2,318,1,IN/Out,11,2,256,2,7,1,1.8,0,0,3,318,1,IN/Out,11,1,85,1,4,1,1.79,0,0,2,318,1,IN/Out,11,4,30,2,7,1,0.738,0,0,2,318,1,leading/trailing,11,2,56,1,7,1,1.25,0,0,2,318,1,IN/Out,10,2,69,1,1,1,1.32,0,0,3,318,1,IN/Out,11,1,792,1,3,1,2.17,0,0,3,318,1,IN/Out,10,4,50,2,1,1,1.06,0,0,2,318,1,leading/trailing,1