Heaven/Earth 0=Heaven; 1=Earth,Condition: 1= In Play; 2=Out of play; 3=leading; 4=trailing,Number Requested,"X: 1=Left most column, counting to the right to max of 2 or 3","Y: 1 equals top row (i.e., out of play heavenly bead), counting downwards to 7. ",Correct on Search task? Trials weith incorrect search responses were excluded from analysis,RT,Abacus entered: Only relevent to dual task,Correct on Abacus: only relevent to dual task,"Number of columns: occasionally you will see 0s in this column, this means the participant was in a pilot version with 4 columns and should be excluded. ",Subject Number: Assigned when extracted from .mat instead of alpha numeric number to make some things in life easier,<3Std Dev: removing outliers (2s). Calculated in linear space. Needs to be redone in log space,Inout or Leading trailing trial,Subject ID,One/Two conditions,Order,Subj ID across Experiments for within subject analysis of order0,1,52,1,2,1,2.5743105,0,0,2,201,1,IN/Out, 2364sdSingle1st.mat ,2,1,23641,2,293,1,7,1,2.052424,0,0,3,201,1,IN/Out, 2364sdSingle1st.mat ,2,1,23641,4,60,2,6,1,1.7070978,0,0,2,201,1,leading/trailing, 2364sdSingle1st.mat ,2,1,23641,1,79,1,3,1,1.6686526,0,0,2,201,1,IN/Out, 2364sdSingle1st.mat ,2,1,23641,1,48,1,3,1,1.1998134,0,0,2,201,1,IN/Out, 2364sdSingle1st.mat ,2,1,23640,4,40,2,1,1,1.8732611,0,0,2,201,1,leading/trailing, 2364sdSingle1st.mat ,2,1,23641,2,613,2,7,1,3.6519114,0,0,3,201,1,IN/Out, 2364sdSingle1st.mat ,2,1,23641,3,4,1,7,1,1.437867,0,0,2,201,1,leading/trailing, 2364sdSingle1st.mat ,2,1,23640,1,665,3,2,1,2.9494598,0,0,3,201,1,IN/Out, 2364sdSingle1st.mat ,2,1,23640,4,760,3,1,1,1.8732454,0,0,3,201,1,leading/trailing, 2364sdSingle1st.mat ,2,1,23641,1,292,3,4,1,1.6823936,0,0,3,201,1,IN/Out, 2364sdSingle1st.mat ,2,1,23641,3,53,1,4,1,2.0121937,0,0,3,201,1,leading/trailing, 2364sdSingle1st.mat ,2,1,23641,4,280,3,5,1,1.6558484,0,0,3,201,1,leading/trailing, 2364sdSingle1st.mat ,2,1,23641,3,3,1,7,1,2.7476537,0,0,2,201,1,leading/trailing, 2364sdSingle1st.mat ,2,1,23641,3,5,1,4,1,1.0889998,0,0,2,201,1,leading/trailing, 2364sdSingle1st.mat ,2,1,23641,1,766,2,3,1,3.4632559,0,0,3,201,1,IN/Out, 2364sdSingle1st.mat ,2,1,23640,4,60,2,1,1,1.8045033,0,0,2,201,1,leading/trailing, 2364sdSingle1st.mat ,2,1,23641,1,207,1,4,1,1.265052,0,0,3,201,1,IN/Out, 2364sdSingle1st.mat ,2,1,23641,4,10,2,6,1,1.095657,0,0,2,201,1,leading/trailing, 2364sdSingle1st.mat ,2,1,23640,2,550,3,1,1,1.5420383,0,0,3,201,1,IN/Out, 2364sdSingle1st.mat ,2,1,23641,3,27,1,6,1,1.1333968,0,0,3,201,1,leading/trailing, 2364sdSingle1st.mat ,2,1,23641,4,110,3,6,1,1.0198809,0,0,3,201,1,leading/trailing, 2364sdSingle1st.mat ,2,1,23641,4,90,2,5,1,1.1332775,0,0,2,201,1,leading/trailing, 2364sdSingle1st.mat ,2,1,23641,2,10,2,6,1,0.83404619,0,0,2,201,1,IN/Out, 2364sdSingle1st.mat ,2,1,23640,4,750,3,1,1,1.4388704,0,0,3,201,1,leading/trailing, 2364sdSingle1st.mat ,2,1,23641,1,66,2,3,1,1.2447959,0,0,2,201,1,IN/Out, 2364sdSingle1st.mat ,2,1,23640,3,42,1,1,1,4.9709001,0,0,3,201,1,leading/trailing, 2364sdSingle1st.mat ,2,1,23640,3,98,1,1,1,1.1657489,0,0,3,201,1,leading/trailing, 2364sdSingle1st.mat ,2,1,23641,1,187,3,4,1,1.1852821,0,0,3,201,1,IN/Out, 2364sdSingle1st.mat ,2,1,23641,3,88,1,5,1,1.02596,0,0,3,201,1,leading/trailing, 2364sdSingle1st.mat ,2,1,23641,3,91,1,5,1,1.2121106,0,0,3,201,1,leading/trailing, 2364sdSingle1st.mat ,2,1,23641,3,25,1,7,1,1.877381,0,0,3,201,1,leading/trailing, 2364sdSingle1st.mat ,2,1,23641,1,47,2,4,0,2.502988,0,0,3,201,1,IN/Out, 2364sdSingle1st.mat ,2,1,23641,1,65,1,3,1,2.322355,0,0,2,201,1,IN/Out, 2364sdSingle1st.mat ,2,1,23641,1,77,1,3,1,1.4303876,0,0,2,201,1,IN/Out, 2364sdSingle1st.mat ,2,1,23641,3,6,1,7,1,1.2205735,0,0,2,201,1,leading/trailing, 2364sdSingle1st.mat ,2,1,23641,1,61,2,3,1,1.4200419,0,0,2,201,1,IN/Out, 2364sdSingle1st.mat ,2,1,23641,2,79,1,6,1,1.1398818,0,0,2,201,1,IN/Out, 2364sdSingle1st.mat ,2,1,23640,1,992,2,2,1,1.3756301,0,0,3,201,1,IN/Out, 2364sdSingle1st.mat ,2,1,23641,3,74,1,6,1,1.4574332,0,0,3,201,1,leading/trailing, 2364sdSingle1st.mat ,2,1,23641,4,590,3,7,1,2.6720707,0,0,3,201,1,leading/trailing, 2364sdSingle1st.mat ,2,1,23641,4,20,2,7,1,1.2735858,0,0,2,201,1,leading/trailing, 2364sdSingle1st.mat ,2,1,23641,4,10,2,7,1,1.5373679,0,0,2,201,1,leading/trailing, 2364sdSingle1st.mat ,2,1,23641,1,96,1,5,1,1.5216502,0,0,2,201,1,IN/Out, 2364sdSingle1st.mat ,2,1,23641,2,63,1,7,1,2.0292021,0,0,3,201,1,IN/Out, 2364sdSingle1st.mat ,2,1,23640,2,21,1,1,1,1.8147434,0,0,2,201,1,IN/Out, 2364sdSingle1st.mat ,2,1,23641,3,36,1,7,1,2.0587057,0,0,3,201,1,leading/trailing, 2364sdSingle1st.mat ,2,1,23641,2,74,1,6,1,1.4420257,0,0,2,201,1,IN/Out, 2364sdSingle1st.mat ,2,1,23641,4,150,3,7,1,2.4805368,0,0,3,201,1,leading/trailing, 2364sdSingle1st.mat ,2,1,23641,4,560,3,4,1,1.7564566,0,0,3,201,1,leading/trailing, 2364sdSingle1st.mat ,2,1,23641,1,951,1,3,1,2.4521609,0,0,3,201,1,IN/Out, 2364sdSingle1st.mat ,2,1,23641,1,69,2,6,1,1.3752341,0,0,2,201,1,IN/Out, 2364sdSingle1st.mat ,2,1,23641,4,70,2,6,1,1.4409558,0,0,2,201,1,leading/trailing, 2364sdSingle1st.mat ,2,1,23640,4,160,3,1,1,1.7577256,0,0,3,201,1,leading/trailing, 2364sdSingle1st.mat ,2,1,23641,1,656,3,3,1,1.4840502,0,0,3,201,1,IN/Out, 2364sdSingle1st.mat ,2,1,23641,3,19,1,4,1,1.5035763,0,0,3,201,1,leading/trailing, 2364sdSingle1st.mat ,2,1,23640,3,4,1,1,1,2.3337262,0,0,2,201,1,leading/trailing, 2364sdSingle1st.mat ,2,1,23641,3,97,1,4,1,1.3120313,0,0,3,201,1,leading/trailing, 2364sdSingle1st.mat ,2,1,23641,1,13,2,5,1,1.2584431,0,0,2,201,1,IN/Out, 2364sdSingle1st.mat ,2,1,23640,1,37,3,2,1,1.337742,0,0,3,201,1,IN/Out, 2364sdSingle1st.mat ,2,1,23641,3,22,1,6,1,1.8919554,0,0,3,201,1,leading/trailing, 2364sdSingle1st.mat ,2,1,23641,4,10,2,7,1,1.6031385,0,0,2,201,1,leading/trailing, 2364sdSingle1st.mat ,2,1,23640,1,82,1,2,1,0.95474978,0,0,2,201,1,IN/Out, 2364sdSingle1st.mat ,2,1,23641,2,16,1,5,1,1.1102783,0,0,3,201,1,IN/Out, 2364sdSingle1st.mat ,2,1,23641,4,460,3,7,1,1.6916041,0,0,3,201,1,leading/trailing, 2364sdSingle1st.mat ,2,1,23640,3,6,1,1,1,1.6317443,0,0,2,201,1,leading/trailing, 2364sdSingle1st.mat ,2,1,23641,2,823,2,6,1,3.5780188,0,0,3,201,1,IN/Out, 2364sdSingle1st.mat ,2,1,23641,2,318,2,5,1,0.86684451,0,0,3,201,1,IN/Out, 2364sdSingle1st.mat ,2,1,23641,1,674,1,3,1,0.90665822,0,0,3,201,1,IN/Out, 2364sdSingle1st.mat ,2,1,23641,2,18,1,5,1,1.0750966,0,0,2,201,1,IN/Out, 2364sdSingle1st.mat ,2,1,23641,4,330,3,7,1,1.4022145,0,0,3,201,1,leading/trailing, 2364sdSingle1st.mat ,2,1,23641,2,77,1,6,1,1.3860508,0,0,2,201,1,IN/Out, 2364sdSingle1st.mat ,2,1,23641,3,6,1,4,1,1.2510963,0,0,2,201,1,leading/trailing, 2364sdSingle1st.mat ,2,1,23641,4,50,2,5,1,1.3309062,0,0,2,201,1,leading/trailing, 2364sdSingle1st.mat ,2,1,23641,3,2,1,5,1,1.6217739,0,0,2,201,1,leading/trailing, 2364sdSingle1st.mat ,2,1,23641,2,15,2,6,1,1.2759812,0,0,2,201,1,IN/Out, 2364sdSingle1st.mat ,2,1,23641,2,199,1,5,1,1.9709185,0,0,3,201,1,IN/Out, 2364sdSingle1st.mat ,2,1,23641,3,3,1,4,0,1.4690973,0,0,2,201,1,leading/trailing, 2364sdSingle1st.mat ,2,1,23641,4,90,2,5,1,3.2532204,0,0,2,201,1,leading/trailing, 2364sdSingle1st.mat ,2,1,23641,2,85,3,6,1,1.9789082,0,0,3,201,1,IN/Out, 2364sdSingle1st.mat ,2,1,23641,3,83,1,5,1,4.1405268,0,0,3,201,1,leading/trailing, 2364sdSingle1st.mat ,2,1,23640,4,40,2,1,1,2.1449715,0,0,2,201,1,leading/trailing, 2364sdSingle1st.mat ,2,1,23640,3,47,1,1,1,3.1247981,0,0,3,201,1,leading/trailing, 2364sdSingle1st.mat ,2,1,23641,4,250,3,6,1,2.1157876,0,0,3,201,1,leading/trailing, 2364sdSingle1st.mat ,2,1,23640,3,5,1,1,1,1.9747447,0,0,2,201,1,leading/trailing, 2364sdSingle1st.mat ,2,1,23641,3,5,1,5,1,2.0435095,0,0,2,201,1,leading/trailing, 2364sdSingle1st.mat ,2,1,23641,2,909,2,5,1,2.6355637,0,0,3,201,1,IN/Out, 2364sdSingle1st.mat ,2,1,23640,3,17,1,1,1,4.6800699,0,0,3,201,1,leading/trailing, 2364sdSingle1st.mat ,2,1,23641,2,126,1,6,1,1.7926029,0,0,3,201,1,IN/Out, 2364sdSingle1st.mat ,2,1,23641,3,6,1,5,1,1.95195,0,0,2,201,1,leading/trailing, 2364sdSingle1st.mat ,2,1,23641,4,10,2,5,1,1.5960753,0,0,2,201,1,leading/trailing, 2364sdSingle1st.mat ,2,1,23641,2,23,1,6,1,1.3534293,0,0,2,201,1,IN/Out, 2364sdSingle1st.mat ,2,1,23640,2,62,2,1,1,1.853675,0,0,2,201,1,IN/Out, 2364sdSingle1st.mat ,2,1,23640,1,85,2,2,1,1.6073878,0,0,2,201,1,IN/Out, 2364sdSingle1st.mat ,2,1,23641,2,687,3,7,1,2.7711557,0,0,3,201,1,IN/Out, 2364sdSingle1st.mat ,2,1,23641,2,41,2,6,1,0.92941685,0,0,2,201,1,IN/Out, 2364sdSingle1st.mat ,2,1,23640,2,434,3,1,1,1.1668382,0,0,3,201,1,IN/Out, 2364sdSingle1st.mat ,2,1,23640,2,5,1,1,1,2.0121818,0,0,2,201,1,IN/Out, 2364sdSingle1st.mat ,2,1,23641,4,730,3,7,1,1.3660524,0,0,3,201,1,leading/trailing, 2364sdSingle1st.mat ,2,1,23641,4,40,2,5,1,1.2314352,0,0,2,201,1,leading/trailing, 2364sdSingle1st.mat ,2,1,23641,2,66,2,6,1,0.93436691,0,0,2,201,1,IN/Out, 2364sdSingle1st.mat ,2,1,23641,1,13,2,5,1,1.2036473,0,0,2,201,1,IN/Out, 2364sdSingle1st.mat ,2,1,23641,1,9,2,5,1,1.1496623,0,0,2,201,1,IN/Out, 2364sdSingle1st.mat ,2,1,23641,2,547,1,4,1,1.0661388,0,0,3,201,1,IN/Out, 2364sdSingle1st.mat ,2,1,23641,3,4,1,5,1,1.0100474,0,0,2,201,1,leading/trailing, 2364sdSingle1st.mat ,2,1,23641,4,550,3,4,1,5.0540247,0,0,3,201,1,leading/trailing, 2364sdSingle1st.mat ,2,1,23641,1,24,1,4,1,1.3085482,0,0,2,201,1,IN/Out, 2364sdSingle1st.mat ,2,1,23640,1,681,1,2,1,1.3359132,0,0,3,201,1,IN/Out, 2364sdSingle1st.mat ,2,1,23641,1,844,2,3,1,1.0986668,0,0,3,201,1,IN/Out, 2364sdSingle1st.mat ,2,1,23641,2,40,2,7,1,1.4973879,0,0,2,201,1,IN/Out, 2364sdSingle1st.mat ,2,1,23641,4,220,3,7,1,0.96432553,0,0,3,201,1,leading/trailing, 2364sdSingle1st.mat ,2,1,23641,1,371,1,3,1,2.1599696,0,0,3,201,1,IN/Out, 2364sdSingle1st.mat ,2,1,23640,3,9,1,1,1,2.5562633,0,0,2,201,1,leading/trailing, 2364sdSingle1st.mat ,2,1,23641,2,79,1,7,1,1.1714049,0,0,2,201,1,IN/Out, 2364sdSingle1st.mat ,2,1,23641,4,70,2,5,1,1.2694966,0,0,2,201,1,leading/trailing, 2364sdSingle1st.mat ,2,1,23641,3,1,1,6,1,1.403862,0,0,2,201,1,leading/trailing, 2364sdSingle1st.mat ,2,1,23640,2,64,1,1,1,2.189266,0,0,3,201,1,IN/Out, 2364sdSingle1st.mat ,2,1,23641,1,2,3,4,1,10.18917,0,0,3,201,2,IN/Out, 2364sdSingle1st.mat ,2,1,23641,2,4,1,7,1,4.0285739,0,0,2,201,1,IN/Out, 2364sdSingle1st.mat ,2,1,23640,2,74,2,1,1,2.2880125,0,0,2,201,1,IN/Out, 2364sdSingle1st.mat ,2,1,23641,4,540,3,5,1,2.2849294,0,0,3,201,1,leading/trailing, 2364sdSingle1st.mat ,2,1,23641,1,975,2,3,1,1.4232853,0,0,3,201,1,IN/Out, 2364sdSingle1st.mat ,2,1,23641,3,34,1,4,1,1.3997331,0,0,3,201,1,leading/trailing, 2364sdSingle1st.mat ,2,1,23640,4,80,2,1,1,0.92826238,0,0,2,201,1,leading/trailing, 2364sdSingle1st.mat ,2,1,23640,1,92,1,2,1,0.90276098,0,0,2,201,1,IN/Out, 2364sdSingle1st.mat ,2,1,23640,2,982,3,1,1,2.5418881,0,0,3,201,1,IN/Out, 2364sdSingle1st.mat ,2,1,23641,3,6,1,7,1,1.2627068,0,0,2,201,1,leading/trailing, 2364sdSingle1st.mat ,2,1,23640,4,280,3,1,1,0.87387302,0,0,3,201,1,leading/trailing, 2364sdSingle1st.mat ,2,1,23640,1,29,2,2,1,5.404248,0,0,2,202,1,IN/Out, 2365asSingle1st.mat ,2,1,23651,3,8,1,4,1,1.4078774,0,0,2,202,1,leading/trailing, 2365asSingle1st.mat ,2,1,23650,3,89,1,1,1,3.6265227,0,0,3,202,1,leading/trailing, 2365asSingle1st.mat ,2,1,23651,1,963,2,3,1,2.8741284,0,0,3,202,1,IN/Out, 2365asSingle1st.mat ,2,1,23651,4,680,3,4,1,1.2336154,0,0,3,202,1,leading/trailing, 2365asSingle1st.mat ,2,1,23650,4,50,2,1,1,1.7962545,0,0,2,202,1,leading/trailing, 2365asSingle1st.mat ,2,1,23651,1,7,2,4,1,1.2586531,0,0,2,202,1,IN/Out, 2365asSingle1st.mat ,2,1,23651,3,32,1,6,1,1.6982153,0,0,3,202,1,leading/trailing, 2365asSingle1st.mat ,2,1,23651,2,507,2,7,1,1.45111,0,0,3,202,1,IN/Out, 2365asSingle1st.mat ,2,1,23650,1,378,3,2,1,1.1018604,0,0,3,202,1,IN/Out, 2365asSingle1st.mat ,2,1,23651,1,13,1,3,1,2.1216819,0,0,2,202,1,IN/Out, 2365asSingle1st.mat ,2,1,23651,3,8,1,7,1,1.4372207,0,0,2,202,1,leading/trailing, 2365asSingle1st.mat ,2,1,23651,4,50,2,5,1,1.1369303,0,0,2,202,1,leading/trailing, 2365asSingle1st.mat ,2,1,23651,3,35,1,6,1,2.4034175,0,0,3,202,1,leading/trailing, 2365asSingle1st.mat ,2,1,23651,4,630,3,7,1,2.3710751,0,0,3,202,1,leading/trailing, 2365asSingle1st.mat ,2,1,23650,3,1,1,1,1,1.8547509,0,0,2,202,1,leading/trailing, 2365asSingle1st.mat ,2,1,23651,1,697,2,5,1,2.5468642,0,0,3,202,1,IN/Out, 2365asSingle1st.mat ,2,1,23651,3,9,1,7,1,1.6150318,0,0,2,202,1,leading/trailing, 2365asSingle1st.mat ,2,1,23650,2,24,2,1,1,1.9844184,0,0,2,202,1,IN/Out, 2365asSingle1st.mat ,2,1,23651,3,2,1,7,1,1.9016049,0,0,2,202,1,leading/trailing, 2365asSingle1st.mat ,2,1,23651,1,10,1,3,1,1.5794628,0,0,2,202,1,IN/Out, 2365asSingle1st.mat ,2,1,23651,4,120,3,7,1,1.3536569,0,0,3,202,1,leading/trailing, 2365asSingle1st.mat ,2,1,23651,1,42,2,3,1,1.2250587,0,0,3,202,1,IN/Out, 2365asSingle1st.mat ,2,1,23651,2,76,2,6,1,1.1571198,0,0,2,202,1,IN/Out, 2365asSingle1st.mat ,2,1,23651,3,66,1,5,1,1.1419715,0,0,3,202,1,leading/trailing, 2365asSingle1st.mat ,2,1,23650,3,21,1,1,1,3.2353734,0,0,3,202,1,leading/trailing, 2365asSingle1st.mat ,2,1,23651,1,45,1,3,1,1.8278138,0,0,2,202,1,IN/Out, 2365asSingle1st.mat ,2,1,23651,1,32,1,5,1,4.7011736,0,0,2,202,1,IN/Out, 2365asSingle1st.mat ,2,1,23651,2,52,1,5,1,1.1753464,0,0,2,202,1,IN/Out, 2365asSingle1st.mat ,2,1,23651,1,593,2,4,1,1.7961594,0,0,3,202,1,IN/Out, 2365asSingle1st.mat ,2,1,23650,2,83,2,1,1,1.7223634,0,0,2,202,1,IN/Out, 2365asSingle1st.mat ,2,1,23651,3,4,1,4,1,1.3371434,0,0,2,202,1,leading/trailing, 2365asSingle1st.mat ,2,1,23651,4,990,3,6,1,3.0088509,0,0,3,202,1,leading/trailing, 2365asSingle1st.mat ,2,1,23651,1,63,3,4,1,2.201269,0,0,3,202,1,IN/Out, 2365asSingle1st.mat ,2,1,23651,1,425,1,6,1,1.6666565,0,0,3,202,1,IN/Out, 2365asSingle1st.mat ,2,1,23651,2,749,1,7,1,1.1793896,0,0,3,202,1,IN/Out, 2365asSingle1st.mat ,2,1,23650,4,50,2,1,1,1.5377541,0,0,2,202,1,leading/trailing, 2365asSingle1st.mat ,2,1,23651,2,12,1,6,1,1.4335972,0,0,2,202,1,IN/Out, 2365asSingle1st.mat ,2,1,23651,4,50,2,7,1,1.7488955,0,0,2,202,1,leading/trailing, 2365asSingle1st.mat ,2,1,23650,2,161,3,1,1,1.8153646,0,0,3,202,1,IN/Out, 2365asSingle1st.mat ,2,1,23651,1,65,1,3,1,0.92297602,0,0,2,202,1,IN/Out, 2365asSingle1st.mat ,2,1,23651,1,847,1,4,1,2.2266117,0,0,3,202,1,IN/Out, 2365asSingle1st.mat ,2,1,23651,4,60,2,4,1,1.2533525,0,0,2,202,1,leading/trailing, 2365asSingle1st.mat ,2,1,23651,3,72,1,5,1,1.2532628,0,0,3,202,1,leading/trailing, 2365asSingle1st.mat ,2,1,23651,2,982,2,7,1,2.5302721,0,0,3,202,1,IN/Out, 2365asSingle1st.mat ,2,1,23650,4,80,2,1,1,2.4539511,0,0,2,202,1,leading/trailing, 2365asSingle1st.mat ,2,1,23651,4,60,2,5,1,1.4215014,0,0,2,202,1,leading/trailing, 2365asSingle1st.mat ,2,1,23651,1,47,1,6,1,1.2797313,0,0,2,202,1,IN/Out, 2365asSingle1st.mat ,2,1,23651,4,680,3,6,1,1.6741246,0,0,3,202,1,leading/trailing, 2365asSingle1st.mat ,2,1,23651,4,450,3,4,1,1.1218106,0,0,3,202,1,leading/trailing, 2365asSingle1st.mat ,2,1,23650,4,490,3,1,1,1.6090118,0,0,3,202,1,leading/trailing, 2365asSingle1st.mat ,2,1,23651,2,79,1,6,1,1.8935766,0,0,2,202,1,IN/Out, 2365asSingle1st.mat ,2,1,23651,1,353,3,4,1,1.5233683,0,0,3,202,1,IN/Out, 2365asSingle1st.mat ,2,1,23650,3,5,1,1,1,1.7810172,0,0,2,202,1,leading/trailing, 2365asSingle1st.mat ,2,1,23651,4,340,3,4,1,1.6792208,0,0,3,202,1,leading/trailing, 2365asSingle1st.mat ,2,1,23651,4,630,3,5,1,1.6565738,0,0,3,202,1,leading/trailing, 2365asSingle1st.mat ,2,1,23651,3,96,1,5,1,2.0098584,0,0,3,202,1,leading/trailing, 2365asSingle1st.mat ,2,1,23651,4,70,2,7,1,1.4854438,0,0,2,202,1,leading/trailing, 2365asSingle1st.mat ,2,1,23651,3,87,1,7,1,2.3572702,0,0,3,202,1,leading/trailing, 2365asSingle1st.mat ,2,1,23651,3,6,1,5,1,1.6086221,0,0,2,202,1,leading/trailing, 2365asSingle1st.mat ,2,1,23651,4,20,2,7,1,1.1408792,0,0,2,202,1,leading/trailing, 2365asSingle1st.mat ,2,1,23651,1,44,1,5,1,1.2046512,0,0,2,202,1,IN/Out, 2365asSingle1st.mat ,2,1,23651,2,626,3,5,1,2.224114,0,0,3,202,1,IN/Out, 2365asSingle1st.mat ,2,1,23651,2,72,2,7,1,1.3378644,0,0,2,202,1,IN/Out, 2365asSingle1st.mat ,2,1,23651,3,37,1,7,1,1.4151643,0,0,3,202,1,leading/trailing, 2365asSingle1st.mat ,2,1,23651,4,50,2,5,1,1.4266429,0,0,2,202,1,leading/trailing, 2365asSingle1st.mat ,2,1,23651,3,31,1,7,1,5.2604069,0,0,3,202,1,leading/trailing, 2365asSingle1st.mat ,2,1,23651,3,9,1,6,1,1.646513,0,0,2,202,1,leading/trailing, 2365asSingle1st.mat ,2,1,23651,4,660,3,5,1,1.3836772,0,0,3,202,1,leading/trailing, 2365asSingle1st.mat ,2,1,23651,2,399,1,7,1,1.2134025,0,0,3,202,1,IN/Out, 2365asSingle1st.mat ,2,1,23650,1,39,2,2,1,1.1127694,0,0,2,202,1,IN/Out, 2365asSingle1st.mat ,2,1,23650,2,806,2,1,1,1.497994,0,0,3,202,1,IN/Out, 2365asSingle1st.mat ,2,1,23651,4,70,2,7,1,1.7060669,0,0,2,202,1,leading/trailing, 2365asSingle1st.mat ,2,1,23650,3,2,1,1,1,1.2900441,0,0,2,202,1,leading/trailing, 2365asSingle1st.mat ,2,1,23651,1,285,1,4,1,1.6976363,0,0,3,202,1,IN/Out, 2365asSingle1st.mat ,2,1,23651,2,487,3,7,1,1.4888956,0,0,3,202,1,IN/Out, 2365asSingle1st.mat ,2,1,23651,3,3,1,6,1,1.5217967,0,0,2,202,1,leading/trailing, 2365asSingle1st.mat ,2,1,23651,2,226,1,7,1,1.1939767,0,0,3,202,1,IN/Out, 2365asSingle1st.mat ,2,1,23651,2,42,2,7,1,1.8480157,0,0,2,202,1,IN/Out, 2365asSingle1st.mat ,2,1,23651,4,50,2,4,1,1.6863119,0,0,2,202,1,leading/trailing, 2365asSingle1st.mat ,2,1,23651,2,5,1,4,1,1.4720415,0,0,2,202,1,IN/Out, 2365asSingle1st.mat ,2,1,23651,4,30,2,6,1,1.3055342,0,0,2,202,1,leading/trailing, 2365asSingle1st.mat ,2,1,23651,2,5,2,5,1,1.1449957,0,0,2,202,1,IN/Out, 2365asSingle1st.mat ,2,1,23651,3,2,1,5,1,1.3050375,0,0,2,202,1,leading/trailing, 2365asSingle1st.mat ,2,1,23650,4,580,3,1,1,1.5356413,0,0,3,202,1,leading/trailing, 2365asSingle1st.mat ,2,1,23651,3,98,1,7,1,2.5667937,0,0,3,202,1,leading/trailing, 2365asSingle1st.mat ,2,1,23651,2,637,3,6,1,1.2404327,0,0,3,202,1,IN/Out, 2365asSingle1st.mat ,2,1,23650,3,85,1,1,1,2.6031096,0,0,3,202,1,leading/trailing, 2365asSingle1st.mat ,2,1,23651,3,76,1,5,1,2.4676941,0,0,3,202,1,leading/trailing, 2365asSingle1st.mat ,2,1,23650,2,19,1,1,1,2.3720873,0,0,2,202,1,IN/Out, 2365asSingle1st.mat ,2,1,23651,2,856,2,5,1,2.1986523,0,0,3,202,1,IN/Out, 2365asSingle1st.mat ,2,1,23651,2,480,3,7,1,1.4887975,0,0,3,202,1,IN/Out, 2365asSingle1st.mat ,2,1,23651,3,37,1,7,1,2.1386543,0,0,3,202,1,leading/trailing, 2365asSingle1st.mat ,2,1,23651,2,97,2,7,1,1.8312901,0,0,2,202,1,IN/Out, 2365asSingle1st.mat ,2,1,23650,4,950,3,1,1,1.7377966,0,0,3,202,1,leading/trailing, 2365asSingle1st.mat ,2,1,23651,1,13,2,4,1,1.6944936,0,0,2,202,1,IN/Out, 2365asSingle1st.mat ,2,1,23650,1,856,1,2,1,2.1235313,0,0,3,202,1,IN/Out, 2365asSingle1st.mat ,2,1,23651,4,80,2,7,1,1.8447501,0,0,2,202,1,leading/trailing, 2365asSingle1st.mat ,2,1,23651,3,8,1,5,1,1.8846641,0,0,2,202,1,leading/trailing, 2365asSingle1st.mat ,2,1,23651,2,98,2,7,1,2.4690853,0,0,2,202,1,IN/Out, 2365asSingle1st.mat ,2,1,23651,2,888,3,7,1,2.0750098,0,0,3,202,1,IN/Out, 2365asSingle1st.mat ,2,1,23651,4,250,3,4,1,1.5614832,0,0,3,202,1,leading/trailing, 2365asSingle1st.mat ,2,1,23651,4,450,3,5,1,1.1593821,0,0,3,202,1,leading/trailing, 2365asSingle1st.mat ,2,1,23651,4,90,2,4,1,1.0946014,0,0,2,202,1,leading/trailing, 2365asSingle1st.mat ,2,1,23650,1,896,3,2,1,1.7033799,0,0,3,202,1,IN/Out, 2365asSingle1st.mat ,2,1,23650,3,82,1,1,1,1.4470215,0,0,3,202,1,leading/trailing, 2365asSingle1st.mat ,2,1,23650,1,63,1,2,1,0.9844298,0,0,2,202,1,IN/Out, 2365asSingle1st.mat ,2,1,23650,2,73,2,1,1,1.0076392,0,0,2,202,1,IN/Out, 2365asSingle1st.mat ,2,1,23651,1,54,2,5,1,0.98814761,0,0,2,202,1,IN/Out, 2365asSingle1st.mat ,2,1,23650,2,831,2,1,1,1.7203276,0,0,3,202,1,IN/Out, 2365asSingle1st.mat ,2,1,23651,3,48,1,7,1,1.0453126,0,0,3,202,1,leading/trailing, 2365asSingle1st.mat ,2,1,23650,4,90,2,1,1,1.7793302,0,0,2,202,1,leading/trailing, 2365asSingle1st.mat ,2,1,23651,3,9,1,7,1,1.9743865,0,0,2,202,1,leading/trailing, 2365asSingle1st.mat ,2,1,23651,1,68,1,3,1,1.0588753,0,0,2,202,1,IN/Out, 2365asSingle1st.mat ,2,1,23651,1,888,2,4,1,1.6986898,0,0,3,202,1,IN/Out, 2365asSingle1st.mat ,2,1,23651,1,64,2,3,1,0.89913424,0,0,2,202,1,IN/Out, 2365asSingle1st.mat ,2,1,23650,2,637,2,1,1,4.6607829,0,0,3,202,1,IN/Out, 2365asSingle1st.mat ,2,1,23651,1,544,2,3,1,2.4714053,0,0,3,202,1,IN/Out, 2365asSingle1st.mat ,2,1,23650,1,45,2,2,1,1.8883243,0,0,2,202,1,IN/Out, 2365asSingle1st.mat ,2,1,23651,4,210,3,5,1,1.0451462,0,0,3,202,1,leading/trailing, 2365asSingle1st.mat ,2,1,23650,4,740,3,1,1,1.5444897,0,0,3,202,1,leading/trailing, 2365asSingle1st.mat ,2,1,23651,3,5,1,6,1,1.3700553,0,0,2,202,1,leading/trailing, 2365asSingle1st.mat ,2,1,23651,2,77,2,6,1,0.92433047,0,0,2,202,1,IN/Out, 2365asSingle1st.mat ,2,1,23651,1,567,3,3,1,0.90631195,0,0,3,202,1,IN/Out, 2365asSingle1st.mat ,2,1,23650,3,6,1,1,1,1.4360406,0,0,2,202,1,leading/trailing, 2365asSingle1st.mat ,2,1,23650,1,953,2,2,1,1.048417,0,0,3,202,1,IN/Out, 2365asSingle1st.mat ,2,1,23651,2,753,2,7,1,1.2663018,0,0,3,202,1,IN/Out, 2365asSingle1st.mat ,2,1,23651,2,80,2,6,1,1.276833,0,0,2,202,1,IN/Out, 2365asSingle1st.mat ,2,1,23651,2,314,2,5,1,4.6939192,0,0,3,203,1,IN/Out, 2367laSingle1stnew.mat ,2,1,23671,3,59,1,6,1,1.888455,0,0,3,203,1,leading/trailing, 2367laSingle1stnew.mat ,2,1,23671,2,822,2,6,1,1.516611,0,0,3,203,1,IN/Out, 2367laSingle1stnew.mat ,2,1,23670,4,30,2,1,1,1.0255913,0,0,2,203,1,leading/trailing, 2367laSingle1stnew.mat ,2,1,23671,3,8,1,5,1,0.88358408,0,0,2,203,1,leading/trailing, 2367laSingle1stnew.mat ,2,1,23671,3,9,1,5,1,1.0500582,0,0,2,203,1,leading/trailing, 2367laSingle1stnew.mat ,2,1,23671,3,9,1,6,1,1.282139,0,0,2,203,1,leading/trailing, 2367laSingle1stnew.mat ,2,1,23670,3,89,1,1,1,5.2448384,0,0,3,203,1,leading/trailing, 2367laSingle1stnew.mat ,2,1,23670,4,540,3,1,1,1.0494988,0,0,3,203,1,leading/trailing, 2367laSingle1stnew.mat ,2,1,23670,2,19,1,1,1,0.93095967,0,0,2,203,1,IN/Out, 2367laSingle1stnew.mat ,2,1,23671,3,94,1,5,1,1.4639221,0,0,3,203,1,leading/trailing, 2367laSingle1stnew.mat ,2,1,23671,1,10,1,3,1,1.0384013,0,0,2,203,1,IN/Out, 2367laSingle1stnew.mat ,2,1,23671,4,20,2,6,1,1.040697,0,0,2,203,1,leading/trailing, 2367laSingle1stnew.mat ,2,1,23671,3,3,1,4,1,0.97097294,0,0,2,203,1,leading/trailing, 2367laSingle1stnew.mat ,2,1,23671,1,62,2,3,1,1.0697261,0,0,2,203,1,IN/Out, 2367laSingle1stnew.mat ,2,1,23671,3,22,1,5,1,0.99142011,0,0,3,203,1,leading/trailing, 2367laSingle1stnew.mat ,2,1,23671,2,12,2,7,1,0.86562455,0,0,2,203,1,IN/Out, 2367laSingle1stnew.mat ,2,1,23671,3,68,1,5,1,0.93444397,0,0,3,203,1,leading/trailing, 2367laSingle1stnew.mat ,2,1,23670,1,25,2,2,1,0.90728785,0,0,2,203,1,IN/Out, 2367laSingle1stnew.mat ,2,1,23670,1,65,1,2,1,0.87161047,0,0,2,203,1,IN/Out, 2367laSingle1stnew.mat ,2,1,23671,1,18,2,3,1,0.80625163,0,0,2,203,1,IN/Out, 2367laSingle1stnew.mat ,2,1,23671,1,433,1,4,1,1.5412647,0,0,3,203,1,IN/Out, 2367laSingle1stnew.mat ,2,1,23671,4,410,3,6,1,1.4028125,0,0,3,203,1,leading/trailing, 2367laSingle1stnew.mat ,2,1,23671,3,21,1,4,1,0.81357447,0,0,3,203,1,leading/trailing, 2367laSingle1stnew.mat ,2,1,23670,3,8,1,1,1,2.45115,0,0,2,203,1,leading/trailing, 2367laSingle1stnew.mat ,2,1,23671,2,27,1,6,1,1.3595388,0,0,2,203,1,IN/Out, 2367laSingle1stnew.mat ,2,1,23671,4,50,2,6,1,0.71318835,0,0,2,203,1,leading/trailing, 2367laSingle1stnew.mat ,2,1,23671,2,912,2,6,1,1.0494423,0,0,3,203,1,IN/Out, 2367laSingle1stnew.mat ,2,1,23670,4,730,3,1,1,1.0459714,0,0,3,203,1,leading/trailing, 2367laSingle1stnew.mat ,2,1,23671,1,26,1,4,1,2.0848387,0,0,2,203,1,IN/Out, 2367laSingle1stnew.mat ,2,1,23670,2,262,3,1,0,1.0990267,0,0,3,203,1,IN/Out, 2367laSingle1stnew.mat ,2,1,23671,2,89,1,7,1,2.5301669,0,0,2,203,1,IN/Out, 2367laSingle1stnew.mat ,2,1,23671,4,310,3,7,1,2.003822,0,0,3,203,1,leading/trailing, 2367laSingle1stnew.mat ,2,1,23671,4,60,2,7,1,1.2694435,0,0,2,203,1,leading/trailing, 2367laSingle1stnew.mat ,2,1,23671,1,6,2,3,1,1.569478,0,0,2,203,1,IN/Out, 2367laSingle1stnew.mat ,2,1,23671,1,93,1,3,1,0.93452614,0,0,2,203,1,IN/Out, 2367laSingle1stnew.mat ,2,1,23670,4,10,2,1,1,1.3336265,0,0,2,203,1,leading/trailing, 2367laSingle1stnew.mat ,2,1,23671,1,38,2,3,1,1.1811207,0,0,2,203,1,IN/Out, 2367laSingle1stnew.mat ,2,1,23671,2,61,2,6,1,1.3386116,0,0,2,203,1,IN/Out, 2367laSingle1stnew.mat ,2,1,23671,4,710,3,4,1,1.1077516,0,0,3,203,1,leading/trailing, 2367laSingle1stnew.mat ,2,1,23671,2,137,3,6,1,1.1944941,0,0,3,203,1,IN/Out, 2367laSingle1stnew.mat ,2,1,23671,2,45,2,5,1,1.0812353,0,0,2,203,1,IN/Out, 2367laSingle1stnew.mat ,2,1,23671,1,437,2,3,1,0.9215014,0,0,3,203,1,IN/Out, 2367laSingle1stnew.mat ,2,1,23670,1,699,1,2,1,2.1582256,0,0,3,203,1,IN/Out, 2367laSingle1stnew.mat ,2,1,23671,4,50,2,6,1,1.2262726,0,0,2,203,1,leading/trailing, 2367laSingle1stnew.mat ,2,1,23671,3,15,1,7,1,1.1259919,0,0,3,203,1,leading/trailing, 2367laSingle1stnew.mat ,2,1,23671,4,60,2,4,1,0.77582898,0,0,2,203,1,leading/trailing, 2367laSingle1stnew.mat ,2,1,23671,1,327,1,3,1,0.79853813,0,0,3,203,1,IN/Out, 2367laSingle1stnew.mat ,2,1,23670,3,61,1,1,1,2.5090297,0,0,3,203,1,leading/trailing, 2367laSingle1stnew.mat ,2,1,23670,2,412,2,1,1,0.7679166,0,0,3,203,1,IN/Out, 2367laSingle1stnew.mat ,2,1,23671,4,60,2,5,1,1.3225412,0,0,2,203,1,leading/trailing, 2367laSingle1stnew.mat ,2,1,23670,2,432,2,1,1,0.93059978,0,0,3,203,1,IN/Out, 2367laSingle1stnew.mat ,2,1,23670,4,890,3,1,1,2.47895,0,0,3,203,1,leading/trailing, 2367laSingle1stnew.mat ,2,1,23671,3,69,1,6,1,1.999299,0,0,3,203,1,leading/trailing, 2367laSingle1stnew.mat ,2,1,23671,1,837,2,4,1,1.0756596,0,0,3,203,1,IN/Out, 2367laSingle1stnew.mat ,2,1,23671,3,5,1,5,1,1.3186042,0,0,2,203,1,leading/trailing, 2367laSingle1stnew.mat ,2,1,23671,1,506,3,3,1,1.4959089,0,0,3,203,1,IN/Out, 2367laSingle1stnew.mat ,2,1,23671,3,6,1,4,1,1.2700405,0,0,2,203,1,leading/trailing, 2367laSingle1stnew.mat ,2,1,23671,2,338,3,7,1,1.1518191,0,0,3,203,1,IN/Out, 2367laSingle1stnew.mat ,2,1,23670,1,616,1,2,1,1.6067285,0,0,3,203,1,IN/Out, 2367laSingle1stnew.mat ,2,1,23671,2,524,1,4,1,1.3943698,0,0,3,203,1,IN/Out, 2367laSingle1stnew.mat ,2,1,23671,4,70,2,4,1,1.3559376,0,0,2,203,1,leading/trailing, 2367laSingle1stnew.mat ,2,1,23671,2,26,2,6,1,1.7339172,0,0,2,203,1,IN/Out, 2367laSingle1stnew.mat ,2,1,23670,2,582,3,1,1,1.2046826,0,0,3,203,1,IN/Out, 2367laSingle1stnew.mat ,2,1,23670,4,30,2,1,1,1.6194571,0,0,2,203,1,leading/trailing, 2367laSingle1stnew.mat ,2,1,23671,1,52,2,3,1,0.69261291,0,0,2,203,1,IN/Out, 2367laSingle1stnew.mat ,2,1,23671,3,81,1,6,1,2.6311768,0,0,3,203,1,leading/trailing, 2367laSingle1stnew.mat ,2,1,23670,3,8,1,1,0,1.009266,0,0,2,203,1,leading/trailing, 2367laSingle1stnew.mat ,2,1,23671,1,42,1,3,1,1.6087645,0,0,2,203,1,IN/Out, 2367laSingle1stnew.mat ,2,1,23671,2,855,2,6,1,1.1067953,0,0,3,203,1,IN/Out, 2367laSingle1stnew.mat ,2,1,23671,1,32,1,4,1,0.8357009,0,0,2,203,1,IN/Out, 2367laSingle1stnew.mat ,2,1,23671,2,36,2,7,1,1.1855972,0,0,2,203,1,IN/Out, 2367laSingle1stnew.mat ,2,1,23671,4,790,3,6,1,1.2400106,0,0,3,203,1,leading/trailing, 2367laSingle1stnew.mat ,2,1,23671,4,10,2,5,1,0.82974599,0,0,2,203,1,leading/trailing, 2367laSingle1stnew.mat ,2,1,23671,4,980,3,7,1,0.88392752,0,0,3,203,1,leading/trailing, 2367laSingle1stnew.mat ,2,1,23671,1,59,2,4,1,0.98736933,0,0,2,203,1,IN/Out, 2367laSingle1stnew.mat ,2,1,23670,3,4,1,1,1,1.0284065,0,0,2,203,1,leading/trailing, 2367laSingle1stnew.mat ,2,1,23670,4,80,2,1,1,1.1539016,0,0,2,203,1,leading/trailing, 2367laSingle1stnew.mat ,2,1,23671,3,6,1,6,1,1.205869,0,0,2,203,1,leading/trailing, 2367laSingle1stnew.mat ,2,1,23671,4,770,3,7,1,1.0693757,0,0,3,203,1,leading/trailing, 2367laSingle1stnew.mat ,2,1,23671,3,37,1,6,1,0.96229814,0,0,3,203,1,leading/trailing, 2367laSingle1stnew.mat ,2,1,23671,3,6,1,6,1,1.0403196,0,0,2,203,1,leading/trailing, 2367laSingle1stnew.mat ,2,1,23670,4,910,3,1,1,0.95220994,0,0,3,203,1,leading/trailing, 2367laSingle1stnew.mat ,2,1,23671,2,10,1,5,1,1.0841748,0,0,2,203,1,IN/Out, 2367laSingle1stnew.mat ,2,1,23671,3,28,1,7,1,1.9675953,0,0,3,203,1,leading/trailing, 2367laSingle1stnew.mat ,2,1,23671,1,106,1,3,1,0.8077762,0,0,3,203,1,IN/Out, 2367laSingle1stnew.mat ,2,1,23671,4,230,3,7,1,1.188848,0,0,3,203,1,leading/trailing, 2367laSingle1stnew.mat ,2,1,23671,1,249,3,3,1,0.87401666,0,0,3,203,1,IN/Out, 2367laSingle1stnew.mat ,2,1,23671,4,20,2,5,1,1.009007,0,0,2,203,1,leading/trailing, 2367laSingle1stnew.mat ,2,1,23671,1,562,3,4,1,0.82517456,0,0,3,203,1,IN/Out, 2367laSingle1stnew.mat ,2,1,23671,4,740,3,5,1,1.0513671,0,0,3,203,1,leading/trailing, 2367laSingle1stnew.mat ,2,1,23671,3,43,1,4,1,1.7558666,0,0,3,203,1,leading/trailing, 2367laSingle1stnew.mat ,2,1,23671,2,7,1,4,1,2.170152,0,0,2,203,1,IN/Out, 2367laSingle1stnew.mat ,2,1,23671,4,50,2,7,1,1.2293758,0,0,2,203,1,leading/trailing, 2367laSingle1stnew.mat ,2,1,23671,2,260,3,4,1,0.79284629,0,0,3,203,1,IN/Out, 2367laSingle1stnew.mat ,2,1,23671,2,78,2,7,1,0.88076673,0,0,2,203,1,IN/Out, 2367laSingle1stnew.mat ,2,1,23671,2,71,2,7,1,1.1970874,0,0,3,203,1,IN/Out, 2367laSingle1stnew.mat ,2,1,23670,1,61,1,2,1,1.2538364,0,0,2,203,1,IN/Out, 2367laSingle1stnew.mat ,2,1,23671,3,1,1,5,1,1.1770226,0,0,2,203,1,leading/trailing, 2367laSingle1stnew.mat ,2,1,23671,2,170,3,4,1,0.89307814,0,0,3,203,1,IN/Out, 2367laSingle1stnew.mat ,2,1,23671,3,62,1,7,1,1.3947973,0,0,3,203,1,leading/trailing, 2367laSingle1stnew.mat ,2,1,23671,4,70,2,7,1,1.1328849,0,0,2,203,1,leading/trailing, 2367laSingle1stnew.mat ,2,1,23671,4,250,3,4,1,0.72259346,0,0,3,203,1,leading/trailing, 2367laSingle1stnew.mat ,2,1,23670,2,46,1,1,1,0.94914562,0,0,2,203,1,IN/Out, 2367laSingle1stnew.mat ,2,1,23671,2,89,1,7,1,0.85005951,0,0,2,203,1,IN/Out, 2367laSingle1stnew.mat ,2,1,23670,3,6,1,1,0,1.3439495,0,0,2,203,1,leading/trailing, 2367laSingle1stnew.mat ,2,1,23670,3,21,1,1,0,5.592607,0,0,3,203,1,leading/trailing, 2367laSingle1stnew.mat ,2,1,23671,1,382,3,4,1,2.1372216,0,0,3,203,1,IN/Out, 2367laSingle1stnew.mat ,2,1,23671,1,401,3,3,1,1.4222921,0,0,3,203,1,IN/Out, 2367laSingle1stnew.mat ,2,1,23670,1,97,2,2,1,1.3746034,0,0,2,203,1,IN/Out, 2367laSingle1stnew.mat ,2,1,23670,2,8,1,1,1,2.9962807,0,0,2,203,1,IN/Out, 2367laSingle1stnew.mat ,2,1,23671,3,2,1,6,1,1.3055187,0,0,2,203,1,leading/trailing, 2367laSingle1stnew.mat ,2,1,23670,2,38,1,1,1,2.3410105,0,0,2,203,1,IN/Out, 2367laSingle1stnew.mat ,2,1,23670,1,399,2,2,1,0.97293212,0,0,3,203,1,IN/Out, 2367laSingle1stnew.mat ,2,1,23671,2,84,1,7,1,1.1996326,0,0,2,203,1,IN/Out, 2367laSingle1stnew.mat ,2,1,23670,3,31,1,1,1,1.3727531,0,0,3,203,1,leading/trailing, 2367laSingle1stnew.mat ,2,1,23671,1,29,2,5,1,1.1027172,0,0,2,203,1,IN/Out, 2367laSingle1stnew.mat ,2,1,23671,3,2,1,7,1,1.1990107,0,0,2,203,1,leading/trailing, 2367laSingle1stnew.mat ,2,1,23671,4,310,3,5,1,1.1722544,0,0,3,203,1,leading/trailing, 2367laSingle1stnew.mat ,2,1,23671,1,193,3,5,1,0.85600106,0,0,3,203,1,IN/Out, 2367laSingle1stnew.mat ,2,1,23670,1,886,1,2,1,2.3056648,0,0,3,203,1,IN/Out, 2367laSingle1stnew.mat ,2,1,23671,2,134,1,6,1,2.4402863,0,0,3,203,1,IN/Out, 2367laSingle1stnew.mat ,2,1,23671,3,9,1,4,1,1.5009499,0,0,2,203,1,leading/trailing, 2367laSingle1stnew.mat ,2,1,23671,1,290,2,4,1,0.80236948,0,0,3,203,1,IN/Out, 2367laSingle1stnew.mat ,2,1,23671,4,320,3,7,1,0.84131821,0,0,3,203,1,leading/trailing, 2367laSingle1stnew.mat ,2,1,23671,2,864,2,7,1,1.6779301,0,0,3,203,1,IN/Out, 2367laSingle1stnew.mat ,2,1,23671,4,790,3,7,1,1.0908078,0,0,3,203,1,leading/trailing, 2367laSingle1stnew.mat ,2,1,23671,4,10,2,7,1,0.89721547,0,0,2,203,1,leading/trailing, 2367laSingle1stnew.mat ,2,1,23670,2,2,2,1,1,5.9793805,0,0,3,204,1,IN/Out, 2368dsSingle1st.mat ,2,1,23680,2,340,1,1,1,3.7436621,0,0,3,204,1,IN/Out, 2368dsSingle1st.mat ,2,1,23680,2,811,2,1,1,2.974176,0,0,3,204,1,IN/Out, 2368dsSingle1st.mat ,2,1,23681,1,81,1,3,1,2.1833734,0,0,2,204,1,IN/Out, 2368dsSingle1st.mat ,2,1,23681,3,1,1,4,1,1.8817685,0,0,2,204,1,leading/trailing, 2368dsSingle1st.mat ,2,1,23681,4,50,2,7,1,2.8353088,0,0,2,204,1,leading/trailing, 2368dsSingle1st.mat ,2,1,23680,2,63,2,1,1,2.9614881,0,0,2,204,1,IN/Out, 2368dsSingle1st.mat ,2,1,23681,2,918,2,5,1,2.5616631,0,0,3,204,1,IN/Out, 2368dsSingle1st.mat ,2,1,23681,3,96,1,6,1,1.7554005,0,0,3,204,1,leading/trailing, 2368dsSingle1st.mat ,2,1,23680,4,930,3,1,1,2.2978883,0,0,3,204,1,leading/trailing, 2368dsSingle1st.mat ,2,1,23680,4,50,2,1,1,1.6001707,0,0,2,204,1,leading/trailing, 2368dsSingle1st.mat ,2,1,23680,2,813,3,1,1,1.5626408,0,0,3,204,1,IN/Out, 2368dsSingle1st.mat ,2,1,23681,4,80,2,5,1,1.6480585,0,0,2,204,1,leading/trailing, 2368dsSingle1st.mat ,2,1,23681,4,440,3,5,1,1.21629,0,0,3,204,1,leading/trailing, 2368dsSingle1st.mat ,2,1,23681,4,310,3,6,1,1.3389601,0,0,3,204,1,leading/trailing, 2368dsSingle1st.mat ,2,1,23681,3,26,1,7,1,2.4234696,0,0,3,204,1,leading/trailing, 2368dsSingle1st.mat ,2,1,23681,3,9,1,6,1,2.4962952,0,0,2,204,1,leading/trailing, 2368dsSingle1st.mat ,2,1,23681,4,530,3,4,1,2.4324884,0,0,3,204,1,leading/trailing, 2368dsSingle1st.mat ,2,1,23681,2,86,2,5,1,5.0466059,0,0,2,204,1,IN/Out, 2368dsSingle1st.mat ,2,1,23681,2,88,1,7,1,2.4086377,0,0,2,204,1,IN/Out, 2368dsSingle1st.mat ,2,1,23680,3,29,1,1,1,4.2183483,0,0,3,204,1,leading/trailing, 2368dsSingle1st.mat ,2,1,23680,1,373,2,2,1,1.7753273,0,0,3,204,1,IN/Out, 2368dsSingle1st.mat ,2,1,23681,1,36,2,3,1,1.298074,0,0,2,204,1,IN/Out, 2368dsSingle1st.mat ,2,1,23681,4,590,3,4,1,1.2513305,0,0,3,204,1,leading/trailing, 2368dsSingle1st.mat ,2,1,23681,4,740,3,7,1,1.4678106,0,0,3,204,1,leading/trailing, 2368dsSingle1st.mat ,2,1,23681,3,71,1,5,1,2.1555079,0,0,3,204,1,leading/trailing, 2368dsSingle1st.mat ,2,1,23680,4,50,2,1,1,3.4405888,0,0,2,204,1,leading/trailing, 2368dsSingle1st.mat ,2,1,23681,1,649,2,6,1,2.7571752,0,0,3,204,1,IN/Out, 2368dsSingle1st.mat ,2,1,23681,2,466,2,6,1,1.7702744,0,0,3,204,1,IN/Out, 2368dsSingle1st.mat ,2,1,23681,3,31,1,7,1,1.3794725,0,0,3,204,1,leading/trailing, 2368dsSingle1st.mat ,2,1,23681,4,70,2,4,1,0.99332364,0,0,2,204,1,leading/trailing, 2368dsSingle1st.mat ,2,1,23681,3,19,1,5,1,1.9177677,0,0,3,204,1,leading/trailing, 2368dsSingle1st.mat ,2,1,23681,2,40,2,4,1,1.3011876,0,0,2,204,1,IN/Out, 2368dsSingle1st.mat ,2,1,23681,1,365,1,5,1,1.1806877,0,0,3,204,1,IN/Out, 2368dsSingle1st.mat ,2,1,23680,4,830,3,1,1,2.8657685,0,0,3,204,1,leading/trailing, 2368dsSingle1st.mat ,2,1,23680,1,95,2,2,1,0.93662263,0,0,2,204,1,IN/Out, 2368dsSingle1st.mat ,2,1,23681,1,710,1,4,1,1.9431188,0,0,3,204,1,IN/Out, 2368dsSingle1st.mat ,2,1,23681,1,449,3,6,1,1.9400418,0,0,3,204,1,IN/Out, 2368dsSingle1st.mat ,2,1,23681,1,83,2,5,1,1.3296068,0,0,2,204,1,IN/Out, 2368dsSingle1st.mat ,2,1,23681,3,2,1,7,1,1.9895916,0,0,2,204,1,leading/trailing, 2368dsSingle1st.mat ,2,1,23680,1,69,1,2,1,1.3541957,0,0,2,204,1,IN/Out, 2368dsSingle1st.mat ,2,1,23680,4,720,3,1,1,2.2861633,0,0,3,204,1,leading/trailing, 2368dsSingle1st.mat ,2,1,23681,3,29,1,4,1,1.2904601,0,0,3,204,1,leading/trailing, 2368dsSingle1st.mat ,2,1,23681,2,333,1,7,1,1.9385625,0,0,3,204,1,IN/Out, 2368dsSingle1st.mat ,2,1,23681,4,40,2,5,1,1.1843141,0,0,2,204,1,leading/trailing, 2368dsSingle1st.mat ,2,1,23681,1,444,3,5,1,1.0758831,0,0,3,204,1,IN/Out, 2368dsSingle1st.mat ,2,1,23681,4,580,3,4,1,1.6875816,0,0,3,204,1,leading/trailing, 2368dsSingle1st.mat ,2,1,23681,4,10,2,5,1,0.95925706,0,0,2,204,1,leading/trailing, 2368dsSingle1st.mat ,2,1,23681,4,20,2,5,1,1.0826583,0,0,2,204,1,leading/trailing, 2368dsSingle1st.mat ,2,1,23681,2,996,3,5,1,2.6672523,0,0,3,204,1,IN/Out, 2368dsSingle1st.mat ,2,1,23681,4,50,2,7,1,1.6262184,0,0,2,204,1,leading/trailing, 2368dsSingle1st.mat ,2,1,23681,1,693,3,5,1,1.069773,0,0,3,204,1,IN/Out, 2368dsSingle1st.mat ,2,1,23681,3,6,1,4,1,1.566606,0,0,2,204,1,leading/trailing, 2368dsSingle1st.mat ,2,1,23681,4,40,2,4,1,1.5403853,0,0,2,204,1,leading/trailing, 2368dsSingle1st.mat ,2,1,23681,2,501,1,7,1,2.3945946,0,0,3,204,1,IN/Out, 2368dsSingle1st.mat ,2,1,23680,4,90,2,1,1,3.4030281,0,0,2,204,1,leading/trailing, 2368dsSingle1st.mat ,2,1,23681,2,74,1,6,1,1.2973743,0,0,2,204,1,IN/Out, 2368dsSingle1st.mat ,2,1,23681,3,3,1,4,1,0.96987087,0,0,2,204,1,leading/trailing, 2368dsSingle1st.mat ,2,1,23681,1,48,1,6,1,0.82630774,0,0,2,204,1,IN/Out, 2368dsSingle1st.mat ,2,1,23681,3,1,1,4,1,0.75732597,0,0,2,204,1,leading/trailing, 2368dsSingle1st.mat ,2,1,23681,1,808,1,5,1,0.76375189,0,0,3,204,1,IN/Out, 2368dsSingle1st.mat ,2,1,23681,3,3,1,4,1,1.1372157,0,0,2,204,1,leading/trailing, 2368dsSingle1st.mat ,2,1,23681,3,89,1,7,1,1.1289482,0,0,3,204,1,leading/trailing, 2368dsSingle1st.mat ,2,1,23680,3,95,1,1,1,2.3599879,0,0,3,204,1,leading/trailing, 2368dsSingle1st.mat ,2,1,23681,1,98,2,5,1,1.1549495,0,0,2,204,1,IN/Out, 2368dsSingle1st.mat ,2,1,23681,2,523,2,7,1,2.0134762,0,0,3,204,1,IN/Out, 2368dsSingle1st.mat ,2,1,23681,1,39,2,6,1,1.6092218,0,0,2,204,1,IN/Out, 2368dsSingle1st.mat ,2,1,23680,3,6,1,1,1,1.5643779,0,0,2,204,1,leading/trailing, 2368dsSingle1st.mat ,2,1,23681,4,30,2,7,1,2.4159206,0,0,2,204,1,leading/trailing, 2368dsSingle1st.mat ,2,1,23681,3,93,1,4,1,1.5215864,0,0,3,204,1,leading/trailing, 2368dsSingle1st.mat ,2,1,23681,4,440,3,4,1,1.0862958,0,0,3,204,1,leading/trailing, 2368dsSingle1st.mat ,2,1,23681,3,6,1,4,1,0.71199243,0,0,2,204,1,leading/trailing, 2368dsSingle1st.mat ,2,1,23681,2,95,2,5,1,0.86542263,0,0,2,204,1,IN/Out, 2368dsSingle1st.mat ,2,1,23680,2,21,2,1,1,1.7473787,0,0,2,204,1,IN/Out, 2368dsSingle1st.mat ,2,1,23681,1,231,1,4,1,1.0801669,0,0,3,204,1,IN/Out, 2368dsSingle1st.mat ,2,1,23681,3,21,1,7,1,2.2897883,0,0,3,204,1,leading/trailing, 2368dsSingle1st.mat ,2,1,23681,1,43,2,4,1,1.0242772,0,0,2,204,1,IN/Out, 2368dsSingle1st.mat ,2,1,23681,3,97,1,6,1,0.9144664,0,0,3,204,1,leading/trailing, 2368dsSingle1st.mat ,2,1,23680,1,59,1,2,1,2.6100512,0,0,2,204,1,IN/Out, 2368dsSingle1st.mat ,2,1,23680,4,450,3,1,1,0.78563157,0,0,3,204,1,leading/trailing, 2368dsSingle1st.mat ,2,1,23680,1,36,2,2,1,0.79152268,0,0,2,204,1,IN/Out, 2368dsSingle1st.mat ,2,1,23681,2,83,2,7,1,2.5646934,0,0,2,204,1,IN/Out, 2368dsSingle1st.mat ,2,1,23681,2,89,1,7,1,1.5834729,0,0,2,204,1,IN/Out, 2368dsSingle1st.mat ,2,1,23681,4,630,3,7,1,1.0040589,0,0,3,204,1,leading/trailing, 2368dsSingle1st.mat ,2,1,23681,2,68,2,7,1,1.4881487,0,0,2,204,1,IN/Out, 2368dsSingle1st.mat ,2,1,23681,3,8,1,6,1,2.095839,0,0,2,204,1,leading/trailing, 2368dsSingle1st.mat ,2,1,23681,4,10,2,4,1,1.0227917,0,0,2,204,1,leading/trailing, 2368dsSingle1st.mat ,2,1,23680,2,1,2,1,1,2.4492073,0,0,2,204,1,IN/Out, 2368dsSingle1st.mat ,2,1,23681,1,936,1,5,1,1.3931717,0,0,3,204,1,IN/Out, 2368dsSingle1st.mat ,2,1,23681,2,79,1,7,1,1.3484015,0,0,2,204,1,IN/Out, 2368dsSingle1st.mat ,2,1,23680,3,7,1,1,1,1.9542073,0,0,2,204,1,leading/trailing, 2368dsSingle1st.mat ,2,1,23681,1,27,1,3,1,2.045083,0,0,2,204,1,IN/Out, 2368dsSingle1st.mat ,2,1,23681,2,270,3,6,1,2.3994736,0,0,3,204,1,IN/Out, 2368dsSingle1st.mat ,2,1,23681,3,25,1,6,1,1.1846894,0,0,3,204,1,leading/trailing, 2368dsSingle1st.mat ,2,1,23681,1,12,2,4,1,1.0779944,0,0,2,204,1,IN/Out, 2368dsSingle1st.mat ,2,1,23680,3,9,1,1,1,1.1515572,0,0,2,204,1,leading/trailing, 2368dsSingle1st.mat ,2,1,23680,3,73,1,1,1,2.0291337,0,0,3,204,1,leading/trailing, 2368dsSingle1st.mat ,2,1,23681,2,42,2,6,1,1.4624152,0,0,2,204,1,IN/Out, 2368dsSingle1st.mat ,2,1,23680,1,386,2,2,1,0.83661347,0,0,3,204,1,IN/Out, 2368dsSingle1st.mat ,2,1,23681,2,39,1,7,1,3.5199463,0,0,2,204,1,IN/Out, 2368dsSingle1st.mat ,2,1,23680,1,693,2,2,1,1.4411411,0,0,3,204,1,IN/Out, 2368dsSingle1st.mat ,2,1,23681,1,741,2,5,1,1.0916964,0,0,3,204,1,IN/Out, 2368dsSingle1st.mat ,2,1,23681,4,160,3,7,1,1.1170594,0,0,3,204,1,leading/trailing, 2368dsSingle1st.mat ,2,1,23680,3,28,1,1,1,2.2356625,0,0,3,204,1,leading/trailing, 2368dsSingle1st.mat ,2,1,23681,2,93,1,6,1,2.8369871,0,0,3,204,1,IN/Out, 2368dsSingle1st.mat ,2,1,23681,1,52,2,4,1,2.1072888,0,0,2,204,1,IN/Out, 2368dsSingle1st.mat ,2,1,23681,1,34,3,5,1,1.8174655,0,0,3,204,1,IN/Out, 2368dsSingle1st.mat ,2,1,23681,4,680,3,5,1,1.0994043,0,0,3,204,1,leading/trailing, 2368dsSingle1st.mat ,2,1,23681,3,3,1,6,1,2.2122169,0,0,2,204,1,leading/trailing, 2368dsSingle1st.mat ,2,1,23681,1,70,1,3,1,2.5896914,0,0,2,204,1,IN/Out, 2368dsSingle1st.mat ,2,1,23681,4,90,2,4,1,0.71933329,0,0,2,204,1,leading/trailing, 2368dsSingle1st.mat ,2,1,23681,2,849,1,7,1,0.84718118,0,0,3,204,1,IN/Out, 2368dsSingle1st.mat ,2,1,23681,4,810,3,4,1,1.043454,0,0,3,204,1,leading/trailing, 2368dsSingle1st.mat ,2,1,23681,1,322,2,3,1,2.5325025,0,0,3,204,1,IN/Out, 2368dsSingle1st.mat ,2,1,23680,4,80,2,1,1,1.248583,0,0,2,204,1,leading/trailing, 2368dsSingle1st.mat ,2,1,23680,1,726,3,2,1,0.88280318,0,0,3,204,1,IN/Out, 2368dsSingle1st.mat ,2,1,23681,3,1,1,5,1,0.82851695,0,0,2,204,1,leading/trailing, 2368dsSingle1st.mat ,2,1,23681,2,320,3,4,1,1.2878386,0,0,3,204,1,IN/Out, 2368dsSingle1st.mat ,2,1,23681,2,672,3,6,1,1.4727203,0,0,3,204,1,IN/Out, 2368dsSingle1st.mat ,2,1,23681,2,589,2,7,1,2.4336385,0,0,3,204,1,IN/Out, 2368dsSingle1st.mat ,2,1,23681,4,20,2,5,1,1.6014346,0,0,2,204,1,leading/trailing, 2368dsSingle1st.mat ,2,1,23681,4,350,3,6,1,0.82744916,0,0,3,204,1,leading/trailing, 2368dsSingle1st.mat ,2,1,23680,2,64,2,1,1,0.95268492,0,0,2,204,1,IN/Out, 2368dsSingle1st.mat ,2,1,23681,2,11,1,6,1,1.2063058,0,0,2,204,1,IN/Out, 2368dsSingle1st.mat ,2,1,23681,3,76,1,5,1,1.0419712,0,0,3,204,1,leading/trailing, 2368dsSingle1st.mat ,2,1,23681,1,13,2,5,1,0.8281132,0,0,2,204,1,IN/Out, 2368dsSingle1st.mat ,2,1,23680,3,3,1,1,1,1.1494549,0,0,2,204,1,leading/trailing, 2368dsSingle1st.mat ,2,1,23681,3,8,1,7,1,1.6438771,0,0,2,204,1,leading/trailing, 2368dsSingle1st.mat ,2,1,23681,1,15,2,3,1,2.1226241,0,0,3,205,1,IN/Out, 2401ydUp1.mat ,1,N/A,N/A1,2,86,2,5,1,3.9519512,0,0,2,205,1,IN/Out, 2401ydUp1.mat ,1,N/A,N/A1,3,87,1,4,1,4.2907482,0,0,3,205,1,leading/trailing, 2401ydUp1.mat ,1,N/A,N/A1,2,676,3,5,1,1.816378,0,0,3,205,1,IN/Out, 2401ydUp1.mat ,1,N/A,N/A1,3,1,1,4,1,1.0420253,0,0,2,205,1,leading/trailing, 2401ydUp1.mat ,1,N/A,N/A1,4,820,3,7,0,1.2915941,0,0,3,205,1,leading/trailing, 2401ydUp1.mat ,1,N/A,N/A0,2,299,1,1,1,2.1316144,0,0,3,205,1,IN/Out, 2401ydUp1.mat ,1,N/A,N/A1,1,302,1,4,1,1.1923343,0,0,3,205,1,IN/Out, 2401ydUp1.mat ,1,N/A,N/A1,2,16,2,7,1,1.0346303,0,0,2,205,1,IN/Out, 2401ydUp1.mat ,1,N/A,N/A1,1,66,2,3,1,1.2287175,0,0,2,205,1,IN/Out, 2401ydUp1.mat ,1,N/A,N/A1,2,69,1,7,1,1.6862917,0,0,2,205,1,IN/Out, 2401ydUp1.mat ,1,N/A,N/A0,3,4,1,1,1,2.2539768,0,0,2,205,1,leading/trailing, 2401ydUp1.mat ,1,N/A,N/A1,2,351,3,5,1,2.1738379,0,0,3,205,1,IN/Out, 2401ydUp1.mat ,1,N/A,N/A1,2,951,3,6,1,2.3202191,0,0,3,205,1,IN/Out, 2401ydUp1.mat ,1,N/A,N/A1,4,30,2,4,1,1.0038433,0,0,2,205,1,leading/trailing, 2401ydUp1.mat ,1,N/A,N/A0,3,55,1,1,1,2.3577002,0,0,3,205,1,leading/trailing, 2401ydUp1.mat ,1,N/A,N/A1,4,410,3,6,1,1.7693386,0,0,3,205,1,leading/trailing, 2401ydUp1.mat ,1,N/A,N/A0,1,89,1,2,1,1.6623605,0,0,2,205,1,IN/Out, 2401ydUp1.mat ,1,N/A,N/A1,2,28,1,7,1,2.330927,0,0,2,205,1,IN/Out, 2401ydUp1.mat ,1,N/A,N/A1,4,310,3,4,1,1.0138367,0,0,3,205,1,leading/trailing, 2401ydUp1.mat ,1,N/A,N/A1,3,6,1,4,1,1.6547772,0,0,2,205,1,leading/trailing, 2401ydUp1.mat ,1,N/A,N/A1,2,12,1,5,1,1.2441973,0,0,2,205,1,IN/Out, 2401ydUp1.mat ,1,N/A,N/A1,2,60,2,6,1,2.4524732,0,0,2,205,1,IN/Out, 2401ydUp1.mat ,1,N/A,N/A0,4,440,3,1,1,1.8549343,0,0,3,205,1,leading/trailing, 2401ydUp1.mat ,1,N/A,N/A1,3,2,1,6,1,1.4832242,0,0,2,205,1,leading/trailing, 2401ydUp1.mat ,1,N/A,N/A1,4,230,3,7,1,3.5568185,0,0,3,205,1,leading/trailing, 2401ydUp1.mat ,1,N/A,N/A1,2,77,1,4,1,1.4361586,0,0,3,205,1,IN/Out, 2401ydUp1.mat ,1,N/A,N/A0,3,34,1,1,1,1.6282518,0,0,3,205,1,leading/trailing, 2401ydUp1.mat ,1,N/A,N/A1,2,47,1,7,1,1.1060938,0,0,3,205,1,IN/Out, 2401ydUp1.mat ,1,N/A,N/A1,1,9,2,4,1,2.590956,0,0,2,205,1,IN/Out, 2401ydUp1.mat ,1,N/A,N/A1,1,229,1,3,1,2.5476417,0,0,3,205,1,IN/Out, 2401ydUp1.mat ,1,N/A,N/A1,2,29,1,7,1,1.9403817,0,0,2,205,1,IN/Out, 2401ydUp1.mat ,1,N/A,N/A0,4,680,3,1,1,2.1224269,0,0,3,205,1,leading/trailing, 2401ydUp1.mat ,1,N/A,N/A1,4,940,3,4,1,2.6243926,0,0,3,205,1,leading/trailing, 2401ydUp1.mat ,1,N/A,N/A1,3,45,1,5,1,1.1318224,0,0,3,205,1,leading/trailing, 2401ydUp1.mat ,1,N/A,N/A0,4,20,2,1,1,1.8888302,0,0,2,205,1,leading/trailing, 2401ydUp1.mat ,1,N/A,N/A1,1,428,2,3,1,1.1687463,0,0,3,205,1,IN/Out, 2401ydUp1.mat ,1,N/A,N/A1,4,620,3,5,1,1.3716415,0,0,3,205,1,leading/trailing, 2401ydUp1.mat ,1,N/A,N/A1,2,89,1,7,1,2.0789512,0,0,2,205,1,IN/Out, 2401ydUp1.mat ,1,N/A,N/A1,4,830,3,7,1,3.4932126,0,0,3,205,1,leading/trailing, 2401ydUp1.mat ,1,N/A,N/A1,3,5,1,5,1,1.5126814,0,0,2,205,1,leading/trailing, 2401ydUp1.mat ,1,N/A,N/A1,2,30,2,7,1,1.8596569,0,0,2,205,1,IN/Out, 2401ydUp1.mat ,1,N/A,N/A1,3,3,1,6,1,1.6701921,0,0,2,205,1,leading/trailing, 2401ydUp1.mat ,1,N/A,N/A0,4,310,3,1,1,2.9377315,0,0,3,205,1,leading/trailing, 2401ydUp1.mat ,1,N/A,N/A0,2,923,3,1,1,1.9976143,0,0,3,205,1,IN/Out, 2401ydUp1.mat ,1,N/A,N/A1,2,398,3,7,1,3.9216691,0,0,3,205,1,IN/Out, 2401ydUp1.mat ,1,N/A,N/A0,1,93,1,2,1,2.5253849,0,0,2,205,1,IN/Out, 2401ydUp1.mat ,1,N/A,N/A0,3,22,1,1,1,1.9740836,0,0,3,205,1,leading/trailing, 2401ydUp1.mat ,1,N/A,N/A1,1,327,3,3,1,3.4282085,0,0,3,205,1,IN/Out, 2401ydUp1.mat ,1,N/A,N/A0,3,7,1,1,1,2.7685574,0,0,2,205,1,leading/trailing, 2401ydUp1.mat ,1,N/A,N/A1,3,38,1,5,1,1.568247,0,0,3,205,1,leading/trailing, 2401ydUp1.mat ,1,N/A,N/A1,2,59,1,6,1,1.4710885,0,0,2,205,1,IN/Out, 2401ydUp1.mat ,1,N/A,N/A1,4,950,3,5,1,4.4359959,0,0,3,205,1,leading/trailing, 2401ydUp1.mat ,1,N/A,N/A1,4,970,3,4,1,2.7059859,0,0,3,205,1,leading/trailing, 2401ydUp1.mat ,1,N/A,N/A0,3,86,1,1,1,2.7384008,0,0,3,205,1,leading/trailing, 2401ydUp1.mat ,1,N/A,N/A1,1,520,2,3,1,2.1450087,0,0,3,205,1,IN/Out, 2401ydUp1.mat ,1,N/A,N/A1,1,75,1,4,1,3.3413108,0,0,2,205,1,IN/Out, 2401ydUp1.mat ,1,N/A,N/A1,2,38,2,7,1,2.0468371,0,0,2,205,1,IN/Out, 2401ydUp1.mat ,1,N/A,N/A0,1,919,3,2,1,3.0863517,0,0,3,205,1,IN/Out, 2401ydUp1.mat ,1,N/A,N/A1,4,660,3,5,1,2.412266,0,0,3,205,1,leading/trailing, 2401ydUp1.mat ,1,N/A,N/A0,2,14,1,1,1,3.884458,0,0,2,205,1,IN/Out, 2401ydUp1.mat ,1,N/A,N/A0,3,6,1,1,1,1.877451,0,0,2,205,1,leading/trailing, 2401ydUp1.mat ,1,N/A,N/A1,3,3,1,5,1,1.3810868,0,0,2,205,1,leading/trailing, 2401ydUp1.mat ,1,N/A,N/A0,1,295,2,2,1,1.9902888,0,0,3,205,1,IN/Out, 2401ydUp1.mat ,1,N/A,N/A1,1,180,2,4,1,1.5679155,0,0,3,205,1,IN/Out, 2401ydUp1.mat ,1,N/A,N/A1,4,30,2,7,1,1.3530844,0,0,2,205,1,leading/trailing, 2401ydUp1.mat ,1,N/A,N/A1,1,54,2,3,1,0.99631208,0,0,2,205,1,IN/Out, 2401ydUp1.mat ,1,N/A,N/A1,2,564,1,4,1,1.7277639,0,0,3,205,1,IN/Out, 2401ydUp1.mat ,1,N/A,N/A1,2,21,3,5,1,1.8793639,0,0,3,205,1,IN/Out, 2401ydUp1.mat ,1,N/A,N/A1,4,860,3,4,1,0.96871113,0,0,3,205,1,leading/trailing, 2401ydUp1.mat ,1,N/A,N/A1,4,20,2,7,1,2.0599134,0,0,2,205,1,leading/trailing, 2401ydUp1.mat ,1,N/A,N/A0,4,40,2,1,1,1.5890063,0,0,2,205,1,leading/trailing, 2401ydUp1.mat ,1,N/A,N/A1,3,2,1,7,1,3.2981268,0,0,2,205,1,leading/trailing, 2401ydUp1.mat ,1,N/A,N/A1,1,81,1,3,1,1.5042312,0,0,2,205,1,IN/Out, 2401ydUp1.mat ,1,N/A,N/A1,4,50,2,5,1,3.2494716,0,0,2,205,1,leading/trailing, 2401ydUp1.mat ,1,N/A,N/A1,3,95,1,5,1,1.296938,0,0,3,205,1,leading/trailing, 2401ydUp1.mat ,1,N/A,N/A1,4,60,2,5,1,1.5253903,0,0,2,205,1,leading/trailing, 2401ydUp1.mat ,1,N/A,N/A1,4,70,2,7,1,1.2788398,0,0,2,205,1,leading/trailing, 2401ydUp1.mat ,1,N/A,N/A1,3,78,1,6,1,1.7347111,0,0,3,205,1,leading/trailing, 2401ydUp1.mat ,1,N/A,N/A0,2,6,1,1,1,1.6621564,0,0,2,205,1,IN/Out, 2401ydUp1.mat ,1,N/A,N/A1,1,23,2,3,1,2.7761321,0,0,2,205,1,IN/Out, 2401ydUp1.mat ,1,N/A,N/A0,2,407,2,1,1,3.6765939,0,0,3,205,1,IN/Out, 2401ydUp1.mat ,1,N/A,N/A1,2,820,3,4,1,1.4546724,0,0,3,205,1,IN/Out, 2401ydUp1.mat ,1,N/A,N/A1,4,70,2,5,1,1.8145371,0,0,2,205,1,leading/trailing, 2401ydUp1.mat ,1,N/A,N/A1,3,6,1,7,1,3.2106336,0,0,2,205,1,leading/trailing, 2401ydUp1.mat ,1,N/A,N/A1,4,30,2,6,1,1.6990558,0,0,2,205,1,leading/trailing, 2401ydUp1.mat ,1,N/A,N/A1,1,69,3,4,1,1.1163056,0,0,3,205,1,IN/Out, 2401ydUp1.mat ,1,N/A,N/A1,3,34,1,7,1,6.1606097,0,0,3,205,1,leading/trailing, 2401ydUp1.mat ,1,N/A,N/A1,3,87,1,7,1,4.7157075,0,0,3,205,1,leading/trailing, 2401ydUp1.mat ,1,N/A,N/A1,4,10,2,7,1,2.0436814,0,0,2,205,1,leading/trailing, 2401ydUp1.mat ,1,N/A,N/A1,2,696,3,7,1,3.8046886,0,0,3,205,1,IN/Out, 2401ydUp1.mat ,1,N/A,N/A1,1,71,2,3,1,1.0876821,0,0,2,205,1,IN/Out, 2401ydUp1.mat ,1,N/A,N/A1,1,92,1,5,1,2.1188719,0,0,2,205,1,IN/Out, 2401ydUp1.mat ,1,N/A,N/A1,1,613,2,3,1,3.493766,0,0,3,205,1,IN/Out, 2401ydUp1.mat ,1,N/A,N/A1,1,66,2,3,1,2.7536528,0,0,2,205,1,IN/Out, 2401ydUp1.mat ,1,N/A,N/A1,3,2,1,6,1,1.5183953,0,0,2,205,1,leading/trailing, 2401ydUp1.mat ,1,N/A,N/A1,4,960,3,6,1,3.7047119,0,0,3,205,1,leading/trailing, 2401ydUp1.mat ,1,N/A,N/A1,4,20,2,6,1,1.7951344,0,0,2,205,1,leading/trailing, 2401ydUp1.mat ,1,N/A,N/A1,3,55,1,6,1,1.6399011,0,0,3,205,1,leading/trailing, 2401ydUp1.mat ,1,N/A,N/A0,4,90,2,1,1,2.123179,0,0,2,205,1,leading/trailing, 2401ydUp1.mat ,1,N/A,N/A1,3,1,1,4,1,1.767811,0,0,2,205,1,leading/trailing, 2401ydUp1.mat ,1,N/A,N/A1,3,3,1,4,1,1.0458638,0,0,2,205,1,leading/trailing, 2401ydUp1.mat ,1,N/A,N/A0,4,130,3,1,1,2.7582283,0,0,3,205,1,leading/trailing, 2401ydUp1.mat ,1,N/A,N/A0,4,60,2,1,1,2.2938756,0,0,2,205,1,leading/trailing, 2401ydUp1.mat ,1,N/A,N/A1,2,765,2,7,1,1.9933587,0,0,3,205,1,IN/Out, 2401ydUp1.mat ,1,N/A,N/A1,4,90,2,4,1,1.5738745,0,0,2,205,1,leading/trailing, 2401ydUp1.mat ,1,N/A,N/A1,3,63,1,7,1,3.4308091,0,0,3,205,1,leading/trailing, 2401ydUp1.mat ,1,N/A,N/A0,1,988,3,2,1,2.2042374,0,0,3,205,1,IN/Out, 2401ydUp1.mat ,1,N/A,N/A0,1,90,1,2,1,2.5023379,0,0,2,205,1,IN/Out, 2401ydUp1.mat ,1,N/A,N/A1,3,4,1,5,1,1.6787736,0,0,2,205,1,leading/trailing, 2401ydUp1.mat ,1,N/A,N/A1,4,30,2,7,1,1.8192923,0,0,2,205,1,leading/trailing, 2401ydUp1.mat ,1,N/A,N/A0,1,97,2,2,1,1.5579607,0,0,2,205,1,IN/Out, 2401ydUp1.mat ,1,N/A,N/A1,1,892,1,4,1,1.8540605,0,0,3,205,1,IN/Out, 2401ydUp1.mat ,1,N/A,N/A1,1,11,2,3,1,3.1908869,0,0,2,205,1,IN/Out, 2401ydUp1.mat ,1,N/A,N/A1,2,464,2,6,1,2.9063713,0,0,3,205,1,IN/Out, 2401ydUp1.mat ,1,N/A,N/A1,1,429,3,6,1,2.6073861,0,0,3,205,1,IN/Out, 2401ydUp1.mat ,1,N/A,N/A1,1,147,2,6,1,2.4849295,0,0,3,205,1,IN/Out, 2401ydUp1.mat ,1,N/A,N/A1,1,17,2,3,1,2.2233912,0,0,2,205,1,IN/Out, 2401ydUp1.mat ,1,N/A,N/A0,1,817,3,2,1,1.5746412,0,0,3,205,1,IN/Out, 2401ydUp1.mat ,1,N/A,N/A1,3,32,1,4,1,1.6567048,0,0,3,205,1,leading/trailing, 2401ydUp1.mat ,1,N/A,N/A1,2,2,2,7,1,2.4597547,0,0,2,205,1,IN/Out, 2401ydUp1.mat ,1,N/A,N/A1,1,20,1,4,1,1.2176442,0,0,2,205,1,IN/Out, 2401ydUp1.mat ,1,N/A,N/A0,2,739,2,1,1,2.7043509,0,0,3,205,1,IN/Out, 2401ydUp1.mat ,1,N/A,N/A1,3,93,1,7,1,2.832886,0,0,3,205,1,leading/trailing, 2401ydUp1.mat ,1,N/A,N/A0,2,44,1,1,1,4.0846662,0,0,2,205,1,IN/Out, 2401ydUp1.mat ,1,N/A,N/A0,3,1,1,1,1,1.8170982,0,0,2,205,1,leading/trailing, 2401ydUp1.mat ,1,N/A,N/A0,2,4,2,1,1,1.6374643,0,0,2,205,1,IN/Out, 2401ydUp1.mat ,1,N/A,N/A1,3,76,1,5,1,3.5455854,0,0,3,205,1,leading/trailing, 2401ydUp1.mat ,1,N/A,N/A0,1,28,2,2,1,2.9451392,0,0,2,206,1,IN/Out, 2402ssUp1.mat ,1,N/A,N/A1,2,73,2,7,1,1.583286,0,0,2,206,1,IN/Out, 2402ssUp1.mat ,1,N/A,N/A1,3,56,1,5,1,2.3106446,0,0,3,206,1,leading/trailing, 2402ssUp1.mat ,1,N/A,N/A1,3,1,1,5,1,1.1628041,0,0,2,206,1,leading/trailing, 2402ssUp1.mat ,1,N/A,N/A1,4,70,2,5,1,1.1424627,0,0,2,206,1,leading/trailing, 2402ssUp1.mat ,1,N/A,N/A1,1,45,1,4,1,0.73713439,0,0,2,206,1,IN/Out, 2402ssUp1.mat ,1,N/A,N/A1,1,795,1,4,1,1.4235198,0,0,3,206,1,IN/Out, 2402ssUp1.mat ,1,N/A,N/A1,1,789,3,4,0,3.4550765,0,0,3,206,1,IN/Out, 2402ssUp1.mat ,1,N/A,N/A1,2,76,1,6,1,2.2149551,0,0,2,206,1,IN/Out, 2402ssUp1.mat ,1,N/A,N/A1,3,69,1,5,1,1.2953952,0,0,3,206,1,leading/trailing, 2402ssUp1.mat ,1,N/A,N/A1,2,48,1,6,1,2.5479325,0,0,3,206,1,IN/Out, 2402ssUp1.mat ,1,N/A,N/A1,4,470,3,4,1,2.2599766,0,0,3,206,1,leading/trailing, 2402ssUp1.mat ,1,N/A,N/A1,2,707,2,7,1,2.225845,0,0,3,206,1,IN/Out, 2402ssUp1.mat ,1,N/A,N/A1,2,826,2,6,1,1.3545482,0,0,3,206,1,IN/Out, 2402ssUp1.mat ,1,N/A,N/A0,3,6,1,1,1,2.1093472,0,0,2,206,1,leading/trailing, 2402ssUp1.mat ,1,N/A,N/A1,3,56,1,4,1,1.1241307,0,0,3,206,1,leading/trailing, 2402ssUp1.mat ,1,N/A,N/A1,4,570,3,7,1,1.4728965,0,0,3,206,1,leading/trailing, 2402ssUp1.mat ,1,N/A,N/A1,2,948,3,7,1,1.3092446,0,0,3,206,1,IN/Out, 2402ssUp1.mat ,1,N/A,N/A0,1,29,2,2,1,2.3628984,0,0,2,206,1,IN/Out, 2402ssUp1.mat ,1,N/A,N/A1,4,30,2,7,1,1.4747056,0,0,2,206,1,leading/trailing, 2402ssUp1.mat ,1,N/A,N/A0,2,45,1,1,1,1.8564957,0,0,2,206,1,IN/Out, 2402ssUp1.mat ,1,N/A,N/A1,4,50,2,7,1,1.6091041,0,0,2,206,1,leading/trailing, 2402ssUp1.mat ,1,N/A,N/A0,2,415,1,1,1,6.2848081,0,0,3,206,1,IN/Out, 2402ssUp1.mat ,1,N/A,N/A0,2,98,1,1,1,4.506581,0,0,3,206,1,IN/Out, 2402ssUp1.mat ,1,N/A,N/A1,3,25,1,7,0,3.164353,0,0,3,206,1,leading/trailing, 2402ssUp1.mat ,1,N/A,N/A1,4,360,3,5,1,2.8896505,0,0,3,206,1,leading/trailing, 2402ssUp1.mat ,1,N/A,N/A1,3,28,1,7,1,2.8705059,0,0,3,206,1,leading/trailing, 2402ssUp1.mat ,1,N/A,N/A1,2,10,2,7,1,1.1605468,0,0,2,206,1,IN/Out, 2402ssUp1.mat ,1,N/A,N/A1,4,750,3,4,1,2.2122686,0,0,3,206,1,leading/trailing, 2402ssUp1.mat ,1,N/A,N/A1,3,2,1,4,0,1.6056709,0,0,2,206,1,leading/trailing, 2402ssUp1.mat ,1,N/A,N/A0,4,60,2,1,1,3.1883,0,0,2,206,1,leading/trailing, 2402ssUp1.mat ,1,N/A,N/A1,1,314,1,4,1,1.1653545,0,0,3,206,1,IN/Out, 2402ssUp1.mat ,1,N/A,N/A0,3,88,1,1,1,3.2491942,0,0,3,206,1,leading/trailing, 2402ssUp1.mat ,1,N/A,N/A1,3,9,1,5,1,1.9834239,0,0,2,206,1,leading/trailing, 2402ssUp1.mat ,1,N/A,N/A1,2,666,1,7,1,3.1294537,0,0,3,206,1,IN/Out, 2402ssUp1.mat ,1,N/A,N/A1,4,610,3,6,1,2.6863449,0,0,3,206,1,leading/trailing, 2402ssUp1.mat ,1,N/A,N/A0,2,24,2,1,1,2.8816869,0,0,2,206,1,IN/Out, 2402ssUp1.mat ,1,N/A,N/A1,4,530,3,5,1,1.5608801,0,0,3,206,1,leading/trailing, 2402ssUp1.mat ,1,N/A,N/A1,2,15,2,5,1,1.2254307,0,0,2,206,1,IN/Out, 2402ssUp1.mat ,1,N/A,N/A1,3,8,1,4,1,2.8101446,0,0,2,206,1,leading/trailing, 2402ssUp1.mat ,1,N/A,N/A1,2,809,2,7,1,1.1821864,0,0,3,206,1,IN/Out, 2402ssUp1.mat ,1,N/A,N/A0,3,5,1,1,1,1.9934271,0,0,2,206,1,leading/trailing, 2402ssUp1.mat ,1,N/A,N/A0,3,53,1,1,1,1.5717608,0,0,3,206,1,leading/trailing, 2402ssUp1.mat ,1,N/A,N/A1,2,75,1,7,1,1.9483025,0,0,2,206,1,IN/Out, 2402ssUp1.mat ,1,N/A,N/A0,4,220,3,1,1,1.645008,0,0,3,206,1,leading/trailing, 2402ssUp1.mat ,1,N/A,N/A0,4,390,3,1,1,1.2054122,0,0,3,206,1,leading/trailing, 2402ssUp1.mat ,1,N/A,N/A1,1,94,2,4,1,1.1437691,0,0,2,206,1,IN/Out, 2402ssUp1.mat ,1,N/A,N/A1,3,46,1,4,0,1.7693734,0,0,3,206,1,leading/trailing, 2402ssUp1.mat ,1,N/A,N/A1,1,569,3,3,1,1.6457981,0,0,3,206,1,IN/Out, 2402ssUp1.mat ,1,N/A,N/A1,2,5,1,4,1,5.4031989,0,0,2,206,1,IN/Out, 2402ssUp1.mat ,1,N/A,N/A1,4,270,3,5,1,1.5593061,0,0,3,206,1,leading/trailing, 2402ssUp1.mat ,1,N/A,N/A1,4,70,2,5,1,1.9413596,0,0,2,206,1,leading/trailing, 2402ssUp1.mat ,1,N/A,N/A0,1,56,2,2,1,1.4183606,0,0,2,206,1,IN/Out, 2402ssUp1.mat ,1,N/A,N/A1,4,70,2,6,1,1.216821,0,0,2,206,1,leading/trailing, 2402ssUp1.mat ,1,N/A,N/A0,2,31,2,1,1,0.94563759,0,0,2,206,1,IN/Out, 2402ssUp1.mat ,1,N/A,N/A1,1,141,2,4,1,1.2535957,0,0,3,206,1,IN/Out, 2402ssUp1.mat ,1,N/A,N/A1,2,441,3,6,1,4.4525228,0,0,3,206,1,IN/Out, 2402ssUp1.mat ,1,N/A,N/A1,1,18,2,5,1,0.76224136,0,0,2,206,1,IN/Out, 2402ssUp1.mat ,1,N/A,N/A1,2,87,2,7,1,0.84092107,0,0,2,206,1,IN/Out, 2402ssUp1.mat ,1,N/A,N/A1,2,737,3,6,1,2.2494724,0,0,3,206,1,IN/Out, 2402ssUp1.mat ,1,N/A,N/A1,4,80,2,5,1,1.2318725,0,0,2,206,1,leading/trailing, 2402ssUp1.mat ,1,N/A,N/A1,4,140,3,5,1,1.0632555,0,0,3,206,1,leading/trailing, 2402ssUp1.mat ,1,N/A,N/A1,1,39,1,3,1,5.0010351,0,0,2,206,1,IN/Out, 2402ssUp1.mat ,1,N/A,N/A1,3,6,1,4,1,1.4505082,0,0,2,206,1,leading/trailing, 2402ssUp1.mat ,1,N/A,N/A0,2,505,2,1,1,3.3981024,0,0,3,206,1,IN/Out, 2402ssUp1.mat ,1,N/A,N/A1,3,4,1,4,1,3.0382421,0,0,2,206,1,leading/trailing, 2402ssUp1.mat ,1,N/A,N/A0,1,936,1,2,1,4.589637,0,0,3,206,1,IN/Out, 2402ssUp1.mat ,1,N/A,N/A1,4,140,3,6,1,1.3477733,0,0,3,206,1,leading/trailing, 2402ssUp1.mat ,1,N/A,N/A1,3,4,1,7,1,7.2087914,0,0,2,206,2,leading/trailing, 2402ssUp1.mat ,1,N/A,N/A1,4,780,3,5,1,1.3244145,0,0,3,206,1,leading/trailing, 2402ssUp1.mat ,1,N/A,N/A1,4,10,2,4,0,1.1364254,0,0,2,206,1,leading/trailing, 2402ssUp1.mat ,1,N/A,N/A0,4,50,2,1,1,2.3265148,0,0,2,206,1,leading/trailing, 2402ssUp1.mat ,1,N/A,N/A0,2,493,1,1,0,2.2236268,0,0,3,206,1,IN/Out, 2402ssUp1.mat ,1,N/A,N/A1,1,339,1,3,1,2.5539108,0,0,3,206,1,IN/Out, 2402ssUp1.mat ,1,N/A,N/A0,4,10,2,1,1,2.218057,0,0,2,206,1,leading/trailing, 2402ssUp1.mat ,1,N/A,N/A1,3,95,1,4,1,1.7382406,0,0,3,206,1,leading/trailing, 2402ssUp1.mat ,1,N/A,N/A1,4,40,2,7,1,1.5054904,0,0,2,206,1,leading/trailing, 2402ssUp1.mat ,1,N/A,N/A1,2,32,1,7,1,1.1405526,0,0,2,206,1,IN/Out, 2402ssUp1.mat ,1,N/A,N/A1,4,80,2,4,0,1.1449671,0,0,2,206,1,leading/trailing, 2402ssUp1.mat ,1,N/A,N/A1,1,91,2,3,1,1.4791347,0,0,2,206,1,IN/Out, 2402ssUp1.mat ,1,N/A,N/A1,3,9,1,6,1,2.1541483,0,0,2,206,1,leading/trailing, 2402ssUp1.mat ,1,N/A,N/A1,4,50,2,5,1,3.0853374,0,0,2,206,1,leading/trailing, 2402ssUp1.mat ,1,N/A,N/A1,1,32,1,3,1,2.116042,0,0,2,206,1,IN/Out, 2402ssUp1.mat ,1,N/A,N/A1,1,848,2,4,1,1.3839999,0,0,3,206,1,IN/Out, 2402ssUp1.mat ,1,N/A,N/A1,2,510,2,5,1,2.190263,0,0,3,206,1,IN/Out, 2402ssUp1.mat ,1,N/A,N/A1,4,760,3,7,1,1.7672551,0,0,3,206,1,leading/trailing, 2402ssUp1.mat ,1,N/A,N/A1,1,587,2,3,1,2.6535106,0,0,3,206,1,IN/Out, 2402ssUp1.mat ,1,N/A,N/A0,1,65,1,2,1,1.8158425,0,0,2,206,1,IN/Out, 2402ssUp1.mat ,1,N/A,N/A1,3,1,1,7,1,4.7646639,0,0,2,206,1,leading/trailing, 2402ssUp1.mat ,1,N/A,N/A0,4,220,3,1,1,1.943945,0,0,3,206,1,leading/trailing, 2402ssUp1.mat ,1,N/A,N/A1,2,59,2,6,1,2.6067929,0,0,3,206,1,IN/Out, 2402ssUp1.mat ,1,N/A,N/A1,3,86,1,6,1,1.7216227,0,0,3,206,1,leading/trailing, 2402ssUp1.mat ,1,N/A,N/A0,2,29,1,1,1,1.763579,0,0,2,206,1,IN/Out, 2402ssUp1.mat ,1,N/A,N/A0,3,1,1,1,1,1.3869257,0,0,2,206,1,leading/trailing, 2402ssUp1.mat ,1,N/A,N/A1,3,8,1,6,1,2.826803,0,0,2,206,1,leading/trailing, 2402ssUp1.mat ,1,N/A,N/A1,1,17,2,3,1,3.2895292,0,0,3,206,1,IN/Out, 2402ssUp1.mat ,1,N/A,N/A1,4,70,2,6,1,1.1807032,0,0,2,206,1,leading/trailing, 2402ssUp1.mat ,1,N/A,N/A1,3,98,1,7,1,1.561455,0,0,3,206,1,leading/trailing, 2402ssUp1.mat ,1,N/A,N/A0,3,7,1,1,1,1.8640167,0,0,2,206,1,leading/trailing, 2402ssUp1.mat ,1,N/A,N/A1,1,66,1,3,1,1.5452809,0,0,2,206,1,IN/Out, 2402ssUp1.mat ,1,N/A,N/A1,1,138,2,5,1,2.1698435,0,0,3,206,1,IN/Out, 2402ssUp1.mat ,1,N/A,N/A1,1,52,2,4,1,1.1635166,0,0,2,206,1,IN/Out, 2402ssUp1.mat ,1,N/A,N/A0,1,50,2,2,1,2.8708328,0,0,3,206,1,IN/Out, 2402ssUp1.mat ,1,N/A,N/A1,2,39,1,7,1,3.0540903,0,0,2,206,1,IN/Out, 2402ssUp1.mat ,1,N/A,N/A1,3,3,1,6,1,1.6576171,0,0,2,206,1,leading/trailing, 2402ssUp1.mat ,1,N/A,N/A1,3,86,1,4,1,0.97190589,0,0,3,206,1,leading/trailing, 2402ssUp1.mat ,1,N/A,N/A0,1,656,2,2,1,1.030415,0,0,3,206,1,IN/Out, 2402ssUp1.mat ,1,N/A,N/A1,4,50,2,5,1,1.1699838,0,0,2,206,1,leading/trailing, 2402ssUp1.mat ,1,N/A,N/A0,3,41,1,1,1,1.3470938,0,0,3,206,1,leading/trailing, 2402ssUp1.mat ,1,N/A,N/A0,1,870,2,2,0,1.8608341,0,0,3,206,1,IN/Out, 2402ssUp1.mat ,1,N/A,N/A1,1,26,2,3,1,2.0726442,0,0,2,206,1,IN/Out, 2402ssUp1.mat ,1,N/A,N/A1,2,53,1,7,1,2.8554385,0,0,2,206,1,IN/Out, 2402ssUp1.mat ,1,N/A,N/A1,4,750,3,6,1,2.2889559,0,0,3,206,1,leading/trailing, 2402ssUp1.mat ,1,N/A,N/A0,4,50,2,1,1,1.4049671,0,0,2,206,1,leading/trailing, 2402ssUp1.mat ,1,N/A,N/A1,1,98,1,6,1,1.8121214,0,0,2,206,1,IN/Out, 2402ssUp1.mat ,1,N/A,N/A1,3,5,1,5,1,3.0797003,0,0,2,206,1,leading/trailing, 2402ssUp1.mat ,1,N/A,N/A0,3,46,1,1,0,2.2692552,0,0,3,206,1,leading/trailing, 2402ssUp1.mat ,1,N/A,N/A1,2,90,2,5,1,1.2618385,0,0,2,206,1,IN/Out, 2402ssUp1.mat ,1,N/A,N/A1,2,561,1,7,1,1.9379623,0,0,3,206,1,IN/Out, 2402ssUp1.mat ,1,N/A,N/A1,1,28,1,3,1,2.4393694,0,0,2,206,1,IN/Out, 2402ssUp1.mat ,1,N/A,N/A0,4,640,3,1,1,2.1402763,0,0,3,206,1,leading/trailing, 2402ssUp1.mat ,1,N/A,N/A1,3,89,1,4,1,1.4079707,0,0,3,206,1,leading/trailing, 2402ssUp1.mat ,1,N/A,N/A1,2,569,1,7,1,2.0639607,0,0,3,206,1,IN/Out, 2402ssUp1.mat ,1,N/A,N/A1,1,957,3,4,1,1.5902524,0,0,3,206,1,IN/Out, 2402ssUp1.mat ,1,N/A,N/A1,1,363,3,3,1,1.789672,0,0,3,206,1,IN/Out, 2402ssUp1.mat ,1,N/A,N/A1,3,76,1,7,1,1.8268018,0,0,3,206,1,leading/trailing, 2402ssUp1.mat ,1,N/A,N/A1,1,42,1,5,1,1.318066,0,0,2,206,1,IN/Out, 2402ssUp1.mat ,1,N/A,N/A1,2,51,2,7,1,2.6341609,0,0,2,206,1,IN/Out, 2402ssUp1.mat ,1,N/A,N/A1,2,32,1,7,0,3.033627,0,0,2,207,1,IN/Out, 2403krUp1.mat ,1,N/A,N/A1,2,37,1,4,1,1.3940107,0,0,3,207,1,IN/Out, 2403krUp1.mat ,1,N/A,N/A1,3,65,1,4,1,0.8871891,0,0,3,207,1,leading/trailing, 2403krUp1.mat ,1,N/A,N/A0,3,98,1,1,1,1.2027939,0,0,3,207,1,leading/trailing, 2403krUp1.mat ,1,N/A,N/A1,2,10,2,4,1,0.9134157,0,0,2,207,1,IN/Out, 2403krUp1.mat ,1,N/A,N/A1,3,2,1,6,1,1.7472876,0,0,2,207,1,leading/trailing, 2403krUp1.mat ,1,N/A,N/A1,3,75,1,7,1,1.7621259,0,0,3,207,1,leading/trailing, 2403krUp1.mat ,1,N/A,N/A0,4,220,3,1,1,1.5985902,0,0,3,207,1,leading/trailing, 2403krUp1.mat ,1,N/A,N/A1,4,150,3,7,1,1.9302861,0,0,3,207,1,leading/trailing, 2403krUp1.mat ,1,N/A,N/A1,2,713,2,5,1,1.0885674,0,0,3,207,1,IN/Out, 2403krUp1.mat ,1,N/A,N/A1,4,240,3,6,1,1.9064852,0,0,3,207,1,leading/trailing, 2403krUp1.mat ,1,N/A,N/A1,1,68,2,4,0,1.0998882,0,0,2,207,1,IN/Out, 2403krUp1.mat ,1,N/A,N/A1,2,46,2,5,1,1.3754151,0,0,2,207,1,IN/Out, 2403krUp1.mat ,1,N/A,N/A0,2,616,2,1,1,1.518775,0,0,3,207,1,IN/Out, 2403krUp1.mat ,1,N/A,N/A0,1,825,1,2,0,0.94950436,0,0,3,207,1,IN/Out, 2403krUp1.mat ,1,N/A,N/A0,4,90,2,1,1,1.2247318,0,0,2,207,1,leading/trailing, 2403krUp1.mat ,1,N/A,N/A1,4,860,3,7,1,1.461061,0,0,3,207,1,leading/trailing, 2403krUp1.mat ,1,N/A,N/A1,3,8,1,6,1,1.7991803,0,0,2,207,1,leading/trailing, 2403krUp1.mat ,1,N/A,N/A0,1,428,3,2,1,1.6845609,0,0,3,207,1,IN/Out, 2403krUp1.mat ,1,N/A,N/A1,1,87,2,3,1,1.6381047,0,0,2,207,1,IN/Out, 2403krUp1.mat ,1,N/A,N/A1,3,29,1,4,1,2.9278747,0,0,3,207,1,leading/trailing, 2403krUp1.mat ,1,N/A,N/A1,1,28,2,4,0,2.4776957,0,0,2,207,1,IN/Out, 2403krUp1.mat ,1,N/A,N/A0,1,89,1,2,1,2.246661,0,0,2,207,1,IN/Out, 2403krUp1.mat ,1,N/A,N/A0,4,50,2,1,1,0.84530906,0,0,2,207,1,leading/trailing, 2403krUp1.mat ,1,N/A,N/A1,3,1,1,4,1,1.5948114,0,0,2,207,1,leading/trailing, 2403krUp1.mat ,1,N/A,N/A0,4,50,2,1,1,0.95240958,0,0,2,207,1,leading/trailing, 2403krUp1.mat ,1,N/A,N/A0,1,387,3,2,1,1.2969316,0,0,3,207,1,IN/Out, 2403krUp1.mat ,1,N/A,N/A1,4,770,3,7,1,1.8173626,0,0,3,207,1,leading/trailing, 2403krUp1.mat ,1,N/A,N/A0,2,60,2,1,1,1.3331425,0,0,2,207,1,IN/Out, 2403krUp1.mat ,1,N/A,N/A1,2,54,2,6,1,1.9507852,0,0,3,207,1,IN/Out, 2403krUp1.mat ,1,N/A,N/A1,1,66,2,3,1,2.491354,0,0,2,207,1,IN/Out, 2403krUp1.mat ,1,N/A,N/A0,1,39,2,2,1,0.98733015,0,0,2,207,1,IN/Out, 2403krUp1.mat ,1,N/A,N/A0,2,35,1,1,1,1.5711581,0,0,2,207,1,IN/Out, 2403krUp1.mat ,1,N/A,N/A1,3,7,1,5,1,1.6865,0,0,2,207,1,leading/trailing, 2403krUp1.mat ,1,N/A,N/A1,1,412,3,4,1,1.8406578,0,0,3,207,1,IN/Out, 2403krUp1.mat ,1,N/A,N/A1,1,75,1,4,1,0.97019549,0,0,2,207,1,IN/Out, 2403krUp1.mat ,1,N/A,N/A1,1,964,3,6,1,1.6016297,0,0,3,207,1,IN/Out, 2403krUp1.mat ,1,N/A,N/A1,4,860,3,4,0,3.470066,0,0,3,207,1,leading/trailing, 2403krUp1.mat ,1,N/A,N/A1,4,750,3,7,1,2.0100972,0,0,3,207,1,leading/trailing, 2403krUp1.mat ,1,N/A,N/A1,3,3,1,6,1,0.86988186,0,0,2,207,1,leading/trailing, 2403krUp1.mat ,1,N/A,N/A0,2,154,1,1,1,1.753702,0,0,3,207,1,IN/Out, 2403krUp1.mat ,1,N/A,N/A0,2,31,1,1,1,2.1333139,0,0,2,207,1,IN/Out, 2403krUp1.mat ,1,N/A,N/A1,4,150,3,5,1,1.7635575,0,0,3,207,1,leading/trailing, 2403krUp1.mat ,1,N/A,N/A1,2,95,2,5,1,1.0230555,0,0,2,207,1,IN/Out, 2403krUp1.mat ,1,N/A,N/A1,1,129,2,4,1,2.4842454,0,0,3,207,1,IN/Out, 2403krUp1.mat ,1,N/A,N/A1,1,132,3,4,1,1.052246,0,0,3,207,1,IN/Out, 2403krUp1.mat ,1,N/A,N/A1,2,72,2,6,1,1.0004557,0,0,2,207,1,IN/Out, 2403krUp1.mat ,1,N/A,N/A1,2,456,2,7,0,1.4268532,0,0,3,207,1,IN/Out, 2403krUp1.mat ,1,N/A,N/A1,2,825,2,7,1,3.0108099,0,0,3,207,1,IN/Out, 2403krUp1.mat ,1,N/A,N/A1,4,370,3,6,1,1.6402008,0,0,3,207,1,leading/trailing, 2403krUp1.mat ,1,N/A,N/A1,3,94,1,5,0,1.1802785,0,0,3,207,1,leading/trailing, 2403krUp1.mat ,1,N/A,N/A1,2,16,1,5,1,0.99510889,0,0,2,207,1,IN/Out, 2403krUp1.mat ,1,N/A,N/A1,3,16,1,7,0,2.4407571,0,0,3,207,1,leading/trailing, 2403krUp1.mat ,1,N/A,N/A1,4,30,2,4,1,1.4094147,0,0,2,207,1,leading/trailing, 2403krUp1.mat ,1,N/A,N/A1,2,266,1,6,1,2.1435084,0,0,3,207,1,IN/Out, 2403krUp1.mat ,1,N/A,N/A1,3,1,1,5,1,1.9400092,0,0,2,207,1,leading/trailing, 2403krUp1.mat ,1,N/A,N/A1,1,404,3,4,1,1.6800555,0,0,3,207,1,IN/Out, 2403krUp1.mat ,1,N/A,N/A1,4,30,2,4,1,1.1046997,0,0,2,207,1,leading/trailing, 2403krUp1.mat ,1,N/A,N/A0,3,9,1,1,1,2.7080296,0,0,2,207,1,leading/trailing, 2403krUp1.mat ,1,N/A,N/A0,2,303,1,1,1,2.9605295,0,0,3,207,1,IN/Out, 2403krUp1.mat ,1,N/A,N/A1,2,63,1,6,1,2.2278377,0,0,2,207,1,IN/Out, 2403krUp1.mat ,1,N/A,N/A0,3,4,1,1,1,1.4709996,0,0,2,207,1,leading/trailing, 2403krUp1.mat ,1,N/A,N/A0,1,335,3,2,1,1.5258841,0,0,3,207,1,IN/Out, 2403krUp1.mat ,1,N/A,N/A1,1,90,2,4,1,2.2139944,0,0,3,207,1,IN/Out, 2403krUp1.mat ,1,N/A,N/A0,3,9,1,1,1,2.0943957,0,0,2,207,1,leading/trailing, 2403krUp1.mat ,1,N/A,N/A1,2,38,1,7,1,2.3194831,0,0,2,207,1,IN/Out, 2403krUp1.mat ,1,N/A,N/A0,1,78,1,2,1,1.4840093,0,0,2,207,1,IN/Out, 2403krUp1.mat ,1,N/A,N/A1,3,54,1,4,1,1.2917047,0,0,3,207,1,leading/trailing, 2403krUp1.mat ,1,N/A,N/A1,4,20,2,6,1,0.96551961,0,0,2,207,1,leading/trailing, 2403krUp1.mat ,1,N/A,N/A0,1,90,1,2,1,1.068589,0,0,2,207,1,IN/Out, 2403krUp1.mat ,1,N/A,N/A1,1,736,2,4,1,0.81242245,0,0,3,207,1,IN/Out, 2403krUp1.mat ,1,N/A,N/A1,4,30,2,4,1,1.7637175,0,0,2,207,1,leading/trailing, 2403krUp1.mat ,1,N/A,N/A1,4,90,2,6,1,2.3525094,0,0,2,207,1,leading/trailing, 2403krUp1.mat ,1,N/A,N/A1,3,1,1,5,1,2.2694923,0,0,2,207,1,leading/trailing, 2403krUp1.mat ,1,N/A,N/A1,2,687,3,7,1,3.3743054,0,0,3,207,1,IN/Out, 2403krUp1.mat ,1,N/A,N/A1,1,796,1,3,0,1.7672399,0,0,3,207,1,IN/Out, 2403krUp1.mat ,1,N/A,N/A1,4,320,3,4,1,1.2841417,0,0,3,207,1,leading/trailing, 2403krUp1.mat ,1,N/A,N/A0,4,50,2,1,1,1.4884351,0,0,2,207,1,leading/trailing, 2403krUp1.mat ,1,N/A,N/A1,2,975,3,7,1,1.2380014,0,0,3,207,1,IN/Out, 2403krUp1.mat ,1,N/A,N/A1,1,28,2,3,1,1.0759336,0,0,2,207,1,IN/Out, 2403krUp1.mat ,1,N/A,N/A1,4,720,3,7,1,1.0368993,0,0,3,207,1,leading/trailing, 2403krUp1.mat ,1,N/A,N/A0,4,760,3,1,1,2.1604067,0,0,3,207,1,leading/trailing, 2403krUp1.mat ,1,N/A,N/A1,1,44,2,3,1,1.8372676,0,0,2,207,1,IN/Out, 2403krUp1.mat ,1,N/A,N/A1,4,80,2,6,1,1.0238211,0,0,2,207,1,leading/trailing, 2403krUp1.mat ,1,N/A,N/A0,2,93,2,1,1,1.7385052,0,0,2,207,1,IN/Out, 2403krUp1.mat ,1,N/A,N/A1,2,52,1,4,1,2.3858741,0,0,3,207,1,IN/Out, 2403krUp1.mat ,1,N/A,N/A1,3,79,1,7,1,2.6682084,0,0,3,207,1,leading/trailing, 2403krUp1.mat ,1,N/A,N/A1,1,67,2,3,1,2.0515719,0,0,2,207,1,IN/Out, 2403krUp1.mat ,1,N/A,N/A1,3,23,1,7,1,2.7791894,0,0,3,207,1,leading/trailing, 2403krUp1.mat ,1,N/A,N/A1,4,70,2,6,1,1.7425671,0,0,2,207,1,leading/trailing, 2403krUp1.mat ,1,N/A,N/A1,2,93,2,7,1,2.7076903,0,0,2,207,1,IN/Out, 2403krUp1.mat ,1,N/A,N/A1,2,3,1,7,1,2.1548357,0,0,2,207,1,IN/Out, 2403krUp1.mat ,1,N/A,N/A1,3,7,1,5,1,1.6384547,0,0,2,207,1,leading/trailing, 2403krUp1.mat ,1,N/A,N/A1,4,90,2,4,1,1.2256316,0,0,2,207,1,leading/trailing, 2403krUp1.mat ,1,N/A,N/A1,1,73,2,5,1,1.0613394,0,0,2,207,1,IN/Out, 2403krUp1.mat ,1,N/A,N/A1,2,25,2,4,1,1.9434762,0,0,2,207,1,IN/Out, 2403krUp1.mat ,1,N/A,N/A1,1,36,1,4,1,0.93319725,0,0,2,207,1,IN/Out, 2403krUp1.mat ,1,N/A,N/A1,1,26,2,4,1,1.5403285,0,0,3,207,1,IN/Out, 2403krUp1.mat ,1,N/A,N/A1,3,64,1,7,1,1.8907823,0,0,3,207,1,leading/trailing, 2403krUp1.mat ,1,N/A,N/A1,1,43,2,5,1,1.1636844,0,0,2,207,1,IN/Out, 2403krUp1.mat ,1,N/A,N/A1,2,52,2,7,1,2.4499947,0,0,2,207,1,IN/Out, 2403krUp1.mat ,1,N/A,N/A1,3,72,1,4,1,1.1869202,0,0,3,207,1,leading/trailing, 2403krUp1.mat ,1,N/A,N/A1,4,250,3,5,1,1.8549183,0,0,3,207,1,leading/trailing, 2403krUp1.mat ,1,N/A,N/A0,3,57,1,1,1,3.4596487,0,0,3,207,1,leading/trailing, 2403krUp1.mat ,1,N/A,N/A0,3,12,1,1,1,1.3419992,0,0,3,207,1,leading/trailing, 2403krUp1.mat ,1,N/A,N/A1,1,16,1,3,1,1.2456614,0,0,2,207,1,IN/Out, 2403krUp1.mat ,1,N/A,N/A0,2,212,1,1,1,2.189956,0,0,3,207,1,IN/Out, 2403krUp1.mat ,1,N/A,N/A1,4,30,2,7,1,1.1313334,0,0,2,207,1,leading/trailing, 2403krUp1.mat ,1,N/A,N/A1,2,892,3,6,1,2.3217997,0,0,3,207,1,IN/Out, 2403krUp1.mat ,1,N/A,N/A1,2,637,3,7,1,2.2073363,0,0,3,207,1,IN/Out, 2403krUp1.mat ,1,N/A,N/A1,4,890,3,7,1,1.2199314,0,0,3,207,1,leading/trailing, 2403krUp1.mat ,1,N/A,N/A0,4,240,3,1,1,1.5333264,0,0,3,207,1,leading/trailing, 2403krUp1.mat ,1,N/A,N/A1,1,185,2,3,1,1.6943938,0,0,3,207,1,IN/Out, 2403krUp1.mat ,1,N/A,N/A1,3,7,1,7,1,1.6061697,0,0,2,207,1,leading/trailing, 2403krUp1.mat ,1,N/A,N/A1,2,160,1,7,1,4.156064,0,0,3,207,1,IN/Out, 2403krUp1.mat ,1,N/A,N/A1,4,80,2,4,1,1.0340359,0,0,2,207,1,leading/trailing, 2403krUp1.mat ,1,N/A,N/A1,3,87,1,4,1,1.0631339,0,0,3,207,1,leading/trailing, 2403krUp1.mat ,1,N/A,N/A1,3,2,1,6,1,1.9190742,0,0,2,207,1,leading/trailing, 2403krUp1.mat ,1,N/A,N/A1,3,33,1,7,1,2.1096643,0,0,3,207,1,leading/trailing, 2403krUp1.mat ,1,N/A,N/A1,1,306,1,5,1,1.3708567,0,0,3,207,1,IN/Out, 2403krUp1.mat ,1,N/A,N/A1,4,70,2,6,1,1.1051947,0,0,2,207,1,leading/trailing, 2403krUp1.mat ,1,N/A,N/A1,3,1,1,4,1,1.1337883,0,0,2,207,1,leading/trailing, 2403krUp1.mat ,1,N/A,N/A0,3,29,1,1,1,2.4758351,0,0,3,207,1,leading/trailing, 2403krUp1.mat ,1,N/A,N/A0,3,5,1,1,1,1.0689375,0,0,2,207,1,leading/trailing, 2403krUp1.mat ,1,N/A,N/A1,1,258,1,4,1,2.623021,0,0,3,207,1,IN/Out, 2403krUp1.mat ,1,N/A,N/A1,3,4,1,5,1,3.9338813,0,0,2,207,1,leading/trailing, 2403krUp1.mat ,1,N/A,N/A0,4,140,3,1,0,1.3207441,0,0,3,207,1,leading/trailing, 2403krUp1.mat ,1,N/A,N/A1,4,80,2,4,1,1.2317913,0,0,2,207,1,leading/trailing, 2403krUp1.mat ,1,N/A,N/A1,4,710,3,5,1,3.4824398,0,0,3,208,1,leading/trailing, 2405rkUp1.mat ,1,N/A,N/A1,2,978,2,7,1,3.2294232,0,0,3,208,1,IN/Out, 2405rkUp1.mat ,1,N/A,N/A1,2,66,1,5,1,3.2171847,0,0,3,208,1,IN/Out, 2405rkUp1.mat ,1,N/A,N/A1,4,130,3,4,1,1.5099214,0,0,3,208,1,leading/trailing, 2405rkUp1.mat ,1,N/A,N/A1,3,84,1,6,1,1.5998662,0,0,3,208,1,leading/trailing, 2405rkUp1.mat ,1,N/A,N/A1,3,26,1,5,1,0.87135665,0,0,3,208,1,leading/trailing, 2405rkUp1.mat ,1,N/A,N/A1,3,56,1,4,1,0.97627423,0,0,3,208,1,leading/trailing, 2405rkUp1.mat ,1,N/A,N/A0,4,30,2,1,1,5.1031382,0,0,2,208,1,leading/trailing, 2405rkUp1.mat ,1,N/A,N/A1,2,97,2,6,1,2.2540327,0,0,2,208,1,IN/Out, 2405rkUp1.mat ,1,N/A,N/A1,3,7,1,6,1,2.9583293,0,0,2,208,1,leading/trailing, 2405rkUp1.mat ,1,N/A,N/A1,4,150,3,5,1,2.1943029,0,0,3,208,1,leading/trailing, 2405rkUp1.mat ,1,N/A,N/A1,1,448,3,3,1,2.2917757,0,0,3,208,1,IN/Out, 2405rkUp1.mat ,1,N/A,N/A1,1,40,2,5,1,2.8353784,0,0,3,208,1,IN/Out, 2405rkUp1.mat ,1,N/A,N/A1,4,50,2,5,1,1.286611,0,0,2,208,1,leading/trailing, 2405rkUp1.mat ,1,N/A,N/A1,4,940,3,6,1,3.8250693,0,0,3,208,1,leading/trailing, 2405rkUp1.mat ,1,N/A,N/A0,3,36,1,1,1,5.7582391,0,0,3,208,1,leading/trailing, 2405rkUp1.mat ,1,N/A,N/A1,3,4,1,6,1,1.8877289,0,0,2,208,1,leading/trailing, 2405rkUp1.mat ,1,N/A,N/A1,3,5,1,5,1,1.9886559,0,0,2,208,1,leading/trailing, 2405rkUp1.mat ,1,N/A,N/A1,1,191,3,3,1,4.8220694,0,0,3,208,1,IN/Out, 2405rkUp1.mat ,1,N/A,N/A1,1,605,1,3,1,2.1666571,0,0,3,208,1,IN/Out, 2405rkUp1.mat ,1,N/A,N/A1,4,70,2,6,0,1.5060412,0,0,2,208,1,leading/trailing, 2405rkUp1.mat ,1,N/A,N/A1,1,187,1,3,1,4.0891457,0,0,3,208,1,IN/Out, 2405rkUp1.mat ,1,N/A,N/A1,4,10,2,6,1,3.558605,0,0,2,208,1,leading/trailing, 2405rkUp1.mat ,1,N/A,N/A1,1,90,1,5,1,1.8392357,0,0,2,208,1,IN/Out, 2405rkUp1.mat ,1,N/A,N/A1,3,7,1,7,1,2.7101747,0,0,2,208,1,leading/trailing, 2405rkUp1.mat ,1,N/A,N/A1,4,650,3,7,1,3.0349532,0,0,3,208,1,leading/trailing, 2405rkUp1.mat ,1,N/A,N/A0,3,24,1,1,1,4.5966105,0,0,3,208,1,leading/trailing, 2405rkUp1.mat ,1,N/A,N/A0,4,880,3,1,1,2.3358049,0,0,3,208,1,leading/trailing, 2405rkUp1.mat ,1,N/A,N/A1,2,72,2,6,1,2.924028,0,0,2,208,1,IN/Out, 2405rkUp1.mat ,1,N/A,N/A1,1,955,1,4,1,1.9700279,0,0,3,208,1,IN/Out, 2405rkUp1.mat ,1,N/A,N/A1,3,6,1,7,1,2.7249032,0,0,2,208,1,leading/trailing, 2405rkUp1.mat ,1,N/A,N/A1,3,5,1,4,0,2.6915068,0,0,2,208,1,leading/trailing, 2405rkUp1.mat ,1,N/A,N/A1,1,6,3,3,1,3.016001,0,0,3,208,1,IN/Out, 2405rkUp1.mat ,1,N/A,N/A1,2,470,3,5,1,1.8912132,0,0,3,208,1,IN/Out, 2405rkUp1.mat ,1,N/A,N/A1,1,808,1,4,1,4.102896,0,0,3,208,1,IN/Out, 2405rkUp1.mat ,1,N/A,N/A0,4,40,2,1,1,2.7648223,0,0,2,208,1,leading/trailing, 2405rkUp1.mat ,1,N/A,N/A1,2,953,2,5,0,1.744915,0,0,3,208,1,IN/Out, 2405rkUp1.mat ,1,N/A,N/A0,3,45,1,1,1,5.6083546,0,0,3,208,1,leading/trailing, 2405rkUp1.mat ,1,N/A,N/A1,2,672,1,5,1,4.4123731,0,0,3,208,1,IN/Out, 2405rkUp1.mat ,1,N/A,N/A1,4,40,2,4,1,2.8228508,0,0,2,208,1,leading/trailing, 2405rkUp1.mat ,1,N/A,N/A0,2,648,2,1,1,1.9444934,0,0,3,208,1,IN/Out, 2405rkUp1.mat ,1,N/A,N/A1,2,73,1,7,1,2.4832068,0,0,2,208,1,IN/Out, 2405rkUp1.mat ,1,N/A,N/A1,1,51,2,3,0,1.8669685,0,0,2,208,1,IN/Out, 2405rkUp1.mat ,1,N/A,N/A1,4,90,2,5,1,2.7904344,0,0,2,208,1,leading/trailing, 2405rkUp1.mat ,1,N/A,N/A1,3,57,1,7,1,1.3925987,0,0,3,208,1,leading/trailing, 2405rkUp1.mat ,1,N/A,N/A1,4,80,2,4,1,1.6965672,0,0,2,208,1,leading/trailing, 2405rkUp1.mat ,1,N/A,N/A1,4,980,3,5,1,1.8908716,0,0,3,208,1,leading/trailing, 2405rkUp1.mat ,1,N/A,N/A0,1,911,1,2,1,3.4239999,0,0,3,208,1,IN/Out, 2405rkUp1.mat ,1,N/A,N/A1,2,50,2,4,1,2.3735161,0,0,2,208,1,IN/Out, 2405rkUp1.mat ,1,N/A,N/A1,4,820,3,5,1,2.8632146,0,0,3,208,1,leading/trailing, 2405rkUp1.mat ,1,N/A,N/A0,3,2,1,1,1,1.9603561,0,0,2,208,1,leading/trailing, 2405rkUp1.mat ,1,N/A,N/A0,1,17,2,2,1,1.3470451,0,0,2,208,1,IN/Out, 2405rkUp1.mat ,1,N/A,N/A1,2,36,2,7,1,2.0353351,0,0,2,208,1,IN/Out, 2405rkUp1.mat ,1,N/A,N/A0,2,6,1,1,1,2.0129198,0,0,2,208,1,IN/Out, 2405rkUp1.mat ,1,N/A,N/A1,1,54,2,6,1,3.2439225,0,0,2,208,1,IN/Out, 2405rkUp1.mat ,1,N/A,N/A0,2,248,2,1,1,2.4864942,0,0,3,208,1,IN/Out, 2405rkUp1.mat ,1,N/A,N/A1,3,13,1,6,1,2.7652554,0,0,3,208,1,leading/trailing, 2405rkUp1.mat ,1,N/A,N/A0,2,38,1,1,1,2.8518371,0,0,2,208,1,IN/Out, 2405rkUp1.mat ,1,N/A,N/A1,2,91,2,5,1,2.0219583,0,0,2,208,1,IN/Out, 2405rkUp1.mat ,1,N/A,N/A1,1,178,3,4,1,2.0842189,0,0,3,208,1,IN/Out, 2405rkUp1.mat ,1,N/A,N/A1,3,64,1,5,1,3.3535853,0,0,3,208,1,leading/trailing, 2405rkUp1.mat ,1,N/A,N/A1,1,69,2,6,1,5.0827696,0,0,2,208,1,IN/Out, 2405rkUp1.mat ,1,N/A,N/A0,3,8,1,1,1,2.5140909,0,0,2,208,1,leading/trailing, 2405rkUp1.mat ,1,N/A,N/A1,2,481,3,5,1,4.51974,0,0,3,208,1,IN/Out, 2405rkUp1.mat ,1,N/A,N/A1,3,5,1,7,1,3.6685072,0,0,2,208,1,leading/trailing, 2405rkUp1.mat ,1,N/A,N/A0,3,1,1,1,1,3.4334548,0,0,2,208,1,leading/trailing, 2405rkUp1.mat ,1,N/A,N/A1,4,80,2,5,1,2.0218066,0,0,2,208,1,leading/trailing, 2405rkUp1.mat ,1,N/A,N/A1,3,36,1,7,1,4.4861754,0,0,3,208,1,leading/trailing, 2405rkUp1.mat ,1,N/A,N/A1,2,8,1,5,1,0.85189669,0,0,2,208,1,IN/Out, 2405rkUp1.mat ,1,N/A,N/A0,4,890,3,1,0,1.7969595,0,0,3,208,1,leading/trailing, 2405rkUp1.mat ,1,N/A,N/A1,2,393,1,7,1,3.5702863,0,0,3,208,1,IN/Out, 2405rkUp1.mat ,1,N/A,N/A1,1,219,2,3,1,2.2243558,0,0,3,208,1,IN/Out, 2405rkUp1.mat ,1,N/A,N/A0,1,190,2,2,1,6.1532421,0,0,3,208,1,IN/Out, 2405rkUp1.mat ,1,N/A,N/A1,4,340,3,7,1,3.0264621,0,0,3,208,1,leading/trailing, 2405rkUp1.mat ,1,N/A,N/A1,2,62,2,7,1,3.0144063,0,0,2,208,1,IN/Out, 2405rkUp1.mat ,1,N/A,N/A1,2,53,1,4,1,2.0820122,0,0,2,208,1,IN/Out, 2405rkUp1.mat ,1,N/A,N/A0,2,9,1,1,1,2.1025586,0,0,2,208,1,IN/Out, 2405rkUp1.mat ,1,N/A,N/A1,2,435,2,7,1,3.6593319,0,0,3,208,1,IN/Out, 2405rkUp1.mat ,1,N/A,N/A1,4,70,2,5,1,1.4410539,0,0,2,208,1,leading/trailing, 2405rkUp1.mat ,1,N/A,N/A1,1,27,2,4,1,1.1168446,0,0,2,208,1,IN/Out, 2405rkUp1.mat ,1,N/A,N/A0,2,32,2,1,1,2.4942144,0,0,2,208,1,IN/Out, 2405rkUp1.mat ,1,N/A,N/A1,2,288,2,7,0,5.4116143,0,0,3,208,1,IN/Out, 2405rkUp1.mat ,1,N/A,N/A1,1,93,1,4,1,1.6778495,0,0,2,208,1,IN/Out, 2405rkUp1.mat ,1,N/A,N/A0,1,85,2,2,1,1.762126,0,0,2,208,1,IN/Out, 2405rkUp1.mat ,1,N/A,N/A0,3,9,1,1,1,2.2596152,0,0,2,208,1,leading/trailing, 2405rkUp1.mat ,1,N/A,N/A1,1,43,1,3,1,1.4034745,0,0,2,208,1,IN/Out, 2405rkUp1.mat ,1,N/A,N/A1,4,240,3,6,1,2.3681781,0,0,3,208,1,leading/trailing, 2405rkUp1.mat ,1,N/A,N/A1,1,51,2,3,1,1.6201974,0,0,2,208,1,IN/Out, 2405rkUp1.mat ,1,N/A,N/A1,1,709,3,4,1,2.8497194,0,0,3,208,1,IN/Out, 2405rkUp1.mat ,1,N/A,N/A1,3,63,1,7,1,7.8200949,0,0,3,208,2,leading/trailing, 2405rkUp1.mat ,1,N/A,N/A1,3,98,1,6,1,4.6641477,0,0,3,208,1,leading/trailing, 2405rkUp1.mat ,1,N/A,N/A0,3,23,1,1,1,4.7489824,0,0,3,208,1,leading/trailing, 2405rkUp1.mat ,1,N/A,N/A0,1,75,1,2,1,1.3615619,0,0,2,208,1,IN/Out, 2405rkUp1.mat ,1,N/A,N/A1,1,11,2,3,1,1.1923172,0,0,2,208,1,IN/Out, 2405rkUp1.mat ,1,N/A,N/A1,2,763,3,7,1,3.0223604,0,0,3,208,1,IN/Out, 2405rkUp1.mat ,1,N/A,N/A0,4,70,2,1,1,2.1133541,0,0,2,208,1,leading/trailing, 2405rkUp1.mat ,1,N/A,N/A0,4,80,2,1,1,1.7580273,0,0,2,208,1,leading/trailing, 2405rkUp1.mat ,1,N/A,N/A1,3,6,1,6,1,2.3753505,0,0,2,208,1,leading/trailing, 2405rkUp1.mat ,1,N/A,N/A1,1,820,1,4,1,2.0424476,0,0,3,208,1,IN/Out, 2405rkUp1.mat ,1,N/A,N/A1,2,47,2,6,0,2.6019425,0,0,2,208,1,IN/Out, 2405rkUp1.mat ,1,N/A,N/A1,4,220,3,4,1,3.9047549,0,0,3,208,1,leading/trailing, 2405rkUp1.mat ,1,N/A,N/A1,2,9,1,5,0,2.4214944,0,0,2,208,1,IN/Out, 2405rkUp1.mat ,1,N/A,N/A1,3,3,1,7,1,0.65114456,0,0,2,208,1,leading/trailing, 2405rkUp1.mat ,1,N/A,N/A1,1,93,2,3,1,2.2139476,0,0,2,208,1,IN/Out, 2405rkUp1.mat ,1,N/A,N/A1,3,81,1,6,1,2.8371278,0,0,3,208,1,leading/trailing, 2405rkUp1.mat ,1,N/A,N/A1,4,50,2,4,1,4.9768907,0,0,2,208,1,leading/trailing, 2405rkUp1.mat ,1,N/A,N/A1,4,710,3,5,1,1.2269641,0,0,3,208,1,leading/trailing, 2405rkUp1.mat ,1,N/A,N/A0,4,170,3,1,1,1.8638586,0,0,3,208,1,leading/trailing, 2405rkUp1.mat ,1,N/A,N/A1,2,20,1,7,1,2.662181,0,0,2,208,1,IN/Out, 2405rkUp1.mat ,1,N/A,N/A1,3,1,1,4,1,1.5742407,0,0,2,208,1,leading/trailing, 2405rkUp1.mat ,1,N/A,N/A0,4,430,3,1,0,1.6454985,0,0,3,208,1,leading/trailing, 2405rkUp1.mat ,1,N/A,N/A0,2,447,1,1,1,3.8082341,0,0,3,208,1,IN/Out, 2405rkUp1.mat ,1,N/A,N/A1,4,70,2,6,1,2.0483181,0,0,2,208,1,leading/trailing, 2405rkUp1.mat ,1,N/A,N/A0,1,914,1,2,1,3.2541647,0,0,3,208,1,IN/Out, 2405rkUp1.mat ,1,N/A,N/A0,1,75,1,2,1,2.472631,0,0,2,208,1,IN/Out, 2405rkUp1.mat ,1,N/A,N/A1,2,547,1,4,1,2.1748871,0,0,3,208,1,IN/Out, 2405rkUp1.mat ,1,N/A,N/A1,3,4,1,6,1,2.3702519,0,0,2,208,1,leading/trailing, 2405rkUp1.mat ,1,N/A,N/A1,3,3,1,4,1,2.6218758,0,0,2,208,1,leading/trailing, 2405rkUp1.mat ,1,N/A,N/A1,2,744,1,6,1,1.774246,0,0,3,208,1,IN/Out, 2405rkUp1.mat ,1,N/A,N/A1,3,22,1,5,1,1.7499675,0,0,3,208,1,leading/trailing, 2405rkUp1.mat ,1,N/A,N/A1,4,60,2,7,1,10.064637,0,0,2,208,2,leading/trailing, 2405rkUp1.mat ,1,N/A,N/A1,1,36,1,3,1,2.5034687,0,0,2,208,1,IN/Out, 2405rkUp1.mat ,1,N/A,N/A1,3,48,1,4,1,2.4146959,0,0,3,208,1,leading/trailing, 2405rkUp1.mat ,1,N/A,N/A0,1,833,1,2,1,3.0233104,0,0,3,208,1,IN/Out, 2405rkUp1.mat ,1,N/A,N/A0,2,742,2,1,0,0.90811536,0,0,3,208,1,IN/Out, 2405rkUp1.mat ,1,N/A,N/A1,4,40,2,7,1,1.6185309,0,0,2,208,1,leading/trailing, 2405rkUp1.mat ,1,N/A,N/A1,1,29,2,5,1,0.97378768,0,0,2,208,1,IN/Out, 2405rkUp1.mat ,1,N/A,N/A1,4,320,3,5,1,0.77852861,0,0,3,208,1,leading/trailing, 2405rkUp1.mat ,1,N/A,N/A0,4,230,3,1,1,3.8508056,0,0,3,209,1,leading/trailing, 2406apUp2.mat ,1,N/A,N/A0,4,20,2,1,1,0.79726864,0,0,2,209,1,leading/trailing, 2406apUp2.mat ,1,N/A,N/A0,3,13,1,1,1,1.1157401,0,0,3,209,1,leading/trailing, 2406apUp2.mat ,1,N/A,N/A0,4,150,3,1,1,2.1612115,0,0,3,209,1,leading/trailing, 2406apUp2.mat ,1,N/A,N/A1,4,90,2,7,1,0.85285486,0,0,2,209,1,leading/trailing, 2406apUp2.mat ,1,N/A,N/A1,4,80,2,5,1,1.6732593,0,0,2,209,1,leading/trailing, 2406apUp2.mat ,1,N/A,N/A0,3,4,1,1,1,0.89049149,0,0,2,209,1,leading/trailing, 2406apUp2.mat ,1,N/A,N/A1,1,91,1,6,1,0.7681562,0,0,2,209,1,IN/Out, 2406apUp2.mat ,1,N/A,N/A1,4,670,3,7,1,1.1171787,0,0,3,209,1,leading/trailing, 2406apUp2.mat ,1,N/A,N/A0,2,465,1,1,1,2.43169,0,0,3,209,1,IN/Out, 2406apUp2.mat ,1,N/A,N/A1,1,253,1,4,1,1.1739961,0,0,3,209,1,IN/Out, 2406apUp2.mat ,1,N/A,N/A1,3,18,1,6,1,0.7302232,0,0,3,209,1,leading/trailing, 2406apUp2.mat ,1,N/A,N/A1,3,7,1,6,1,0.81854438,0,0,2,209,1,leading/trailing, 2406apUp2.mat ,1,N/A,N/A1,1,88,2,4,0,1.3273142,0,0,2,209,1,IN/Out, 2406apUp2.mat ,1,N/A,N/A1,2,79,1,7,1,4.9391034,0,0,2,209,1,IN/Out, 2406apUp2.mat ,1,N/A,N/A0,2,92,2,1,1,3.1625572,0,0,2,209,1,IN/Out, 2406apUp2.mat ,1,N/A,N/A1,3,9,1,7,1,1.1335093,0,0,2,209,1,leading/trailing, 2406apUp2.mat ,1,N/A,N/A1,4,40,2,7,1,1.9794349,0,0,2,209,1,leading/trailing, 2406apUp2.mat ,1,N/A,N/A1,2,544,1,4,1,1.2150305,0,0,3,209,1,IN/Out, 2406apUp2.mat ,1,N/A,N/A1,3,3,1,7,1,2.809933,0,0,2,209,1,leading/trailing, 2406apUp2.mat ,1,N/A,N/A1,2,84,1,6,1,2.6884112,0,0,3,209,1,IN/Out, 2406apUp2.mat ,1,N/A,N/A1,1,618,3,5,1,2.2774495,0,0,3,209,1,IN/Out, 2406apUp2.mat ,1,N/A,N/A1,3,6,1,7,1,1.5329724,0,0,2,209,1,leading/trailing, 2406apUp2.mat ,1,N/A,N/A0,4,20,2,1,1,2.0911912,0,0,2,209,1,leading/trailing, 2406apUp2.mat ,1,N/A,N/A1,3,6,1,7,1,3.5377301,0,0,2,209,1,leading/trailing, 2406apUp2.mat ,1,N/A,N/A1,2,534,2,7,1,1.2986834,0,0,3,209,1,IN/Out, 2406apUp2.mat ,1,N/A,N/A0,1,802,1,2,1,1.194982,0,0,3,209,1,IN/Out, 2406apUp2.mat ,1,N/A,N/A0,3,26,1,1,1,0.77328971,0,0,3,209,1,leading/trailing, 2406apUp2.mat ,1,N/A,N/A1,1,60,1,3,1,0.58100905,0,0,2,209,1,IN/Out, 2406apUp2.mat ,1,N/A,N/A1,2,133,3,7,1,1.0106618,0,0,3,209,1,IN/Out, 2406apUp2.mat ,1,N/A,N/A1,2,313,3,7,1,1.0631139,0,0,3,209,1,IN/Out, 2406apUp2.mat ,1,N/A,N/A1,1,60,1,3,1,0.95279823,0,0,2,209,1,IN/Out, 2406apUp2.mat ,1,N/A,N/A1,3,9,1,4,1,0.51916151,0,0,2,209,1,leading/trailing, 2406apUp2.mat ,1,N/A,N/A1,2,104,2,4,1,0.51817351,0,0,3,209,1,IN/Out, 2406apUp2.mat ,1,N/A,N/A1,4,20,2,6,1,0.88837946,0,0,2,209,1,leading/trailing, 2406apUp2.mat ,1,N/A,N/A0,2,81,2,1,1,1.6175488,0,0,2,209,1,IN/Out, 2406apUp2.mat ,1,N/A,N/A0,2,541,2,1,1,1.4656303,0,0,3,209,1,IN/Out, 2406apUp2.mat ,1,N/A,N/A1,3,83,1,6,1,2.7143589,0,0,3,209,1,leading/trailing, 2406apUp2.mat ,1,N/A,N/A1,4,40,2,4,1,1.4806138,0,0,2,209,1,leading/trailing, 2406apUp2.mat ,1,N/A,N/A1,3,3,1,7,1,2.7114638,0,0,2,209,1,leading/trailing, 2406apUp2.mat ,1,N/A,N/A1,3,96,1,7,1,3.2527005,0,0,3,209,1,leading/trailing, 2406apUp2.mat ,1,N/A,N/A1,4,450,3,5,1,3.1129457,0,0,3,209,1,leading/trailing, 2406apUp2.mat ,1,N/A,N/A1,3,4,1,5,1,2.0704793,0,0,2,209,1,leading/trailing, 2406apUp2.mat ,1,N/A,N/A1,1,239,3,4,1,5.1013143,0,0,3,209,1,IN/Out, 2406apUp2.mat ,1,N/A,N/A1,1,47,1,5,0,1.9501758,0,0,2,209,1,IN/Out, 2406apUp2.mat ,1,N/A,N/A1,2,24,1,7,1,2.046766,0,0,2,209,1,IN/Out, 2406apUp2.mat ,1,N/A,N/A1,1,70,1,3,1,1.816742,0,0,2,209,1,IN/Out, 2406apUp2.mat ,1,N/A,N/A0,1,75,1,2,1,1.5313203,0,0,2,209,1,IN/Out, 2406apUp2.mat ,1,N/A,N/A1,3,92,1,4,1,0.88871008,0,0,3,209,1,leading/trailing, 2406apUp2.mat ,1,N/A,N/A0,2,408,1,1,1,0.76826859,0,0,3,209,1,IN/Out, 2406apUp2.mat ,1,N/A,N/A1,1,106,3,3,1,0.94401013,0,0,3,209,1,IN/Out, 2406apUp2.mat ,1,N/A,N/A0,1,63,1,2,1,0.821771,0,0,2,209,1,IN/Out, 2406apUp2.mat ,1,N/A,N/A1,2,823,2,6,1,1.4814516,0,0,3,209,1,IN/Out, 2406apUp2.mat ,1,N/A,N/A1,3,5,1,7,1,2.0902029,0,0,2,209,1,leading/trailing, 2406apUp2.mat ,1,N/A,N/A1,1,764,1,4,1,1.7525565,0,0,3,209,1,IN/Out, 2406apUp2.mat ,1,N/A,N/A1,2,36,1,7,0,1.5981428,0,0,2,209,1,IN/Out, 2406apUp2.mat ,1,N/A,N/A1,3,54,1,5,1,1.3503317,0,0,3,209,1,leading/trailing, 2406apUp2.mat ,1,N/A,N/A1,4,920,3,4,1,1.1566575,0,0,3,209,1,leading/trailing, 2406apUp2.mat ,1,N/A,N/A1,3,73,1,4,1,2.7064012,0,0,3,209,1,leading/trailing, 2406apUp2.mat ,1,N/A,N/A1,1,69,3,3,1,1.7248101,0,0,3,209,1,IN/Out, 2406apUp2.mat ,1,N/A,N/A1,2,219,1,6,1,1.6039316,0,0,3,209,1,IN/Out, 2406apUp2.mat ,1,N/A,N/A1,4,170,3,5,1,3.8772009,0,0,3,209,1,leading/trailing, 2406apUp2.mat ,1,N/A,N/A1,2,465,3,5,1,1.2083639,0,0,3,209,1,IN/Out, 2406apUp2.mat ,1,N/A,N/A1,4,250,3,5,1,2.3256259,0,0,3,209,1,leading/trailing, 2406apUp2.mat ,1,N/A,N/A1,2,35,1,7,1,1.5861993,0,0,2,209,1,IN/Out, 2406apUp2.mat ,1,N/A,N/A1,4,80,2,7,1,1.1985777,0,0,2,209,1,leading/trailing, 2406apUp2.mat ,1,N/A,N/A1,2,62,1,5,1,1.0185871,0,0,2,209,1,IN/Out, 2406apUp2.mat ,1,N/A,N/A1,1,665,2,3,0,1.3498001,0,0,3,209,1,IN/Out, 2406apUp2.mat ,1,N/A,N/A1,3,85,1,5,1,0.54648488,0,0,3,209,1,leading/trailing, 2406apUp2.mat ,1,N/A,N/A1,4,510,3,7,1,2.8977315,0,0,3,209,1,leading/trailing, 2406apUp2.mat ,1,N/A,N/A1,1,298,3,4,1,3.4763,0,0,3,209,1,IN/Out, 2406apUp2.mat ,1,N/A,N/A1,4,120,3,6,1,0.81748936,0,0,3,209,1,leading/trailing, 2406apUp2.mat ,1,N/A,N/A1,4,70,2,6,1,2.4365151,0,0,2,209,1,leading/trailing, 2406apUp2.mat ,1,N/A,N/A0,1,96,2,2,1,2.2045351,0,0,2,209,1,IN/Out, 2406apUp2.mat ,1,N/A,N/A1,4,90,2,6,1,2.3665613,0,0,2,209,1,leading/trailing, 2406apUp2.mat ,1,N/A,N/A0,4,970,3,1,1,3.6587055,0,0,3,209,1,leading/trailing, 2406apUp2.mat ,1,N/A,N/A1,1,72,1,4,1,2.1009881,0,0,2,209,1,IN/Out, 2406apUp2.mat ,1,N/A,N/A1,3,82,1,5,1,0.98835345,0,0,3,209,1,leading/trailing, 2406apUp2.mat ,1,N/A,N/A1,1,610,2,3,1,0.7784377,0,0,3,209,1,IN/Out, 2406apUp2.mat ,1,N/A,N/A1,1,19,2,3,1,1.1597692,0,0,2,209,1,IN/Out, 2406apUp2.mat ,1,N/A,N/A1,4,80,2,5,1,0.93296745,0,0,2,209,1,leading/trailing, 2406apUp2.mat ,1,N/A,N/A1,2,192,1,6,1,2.6043034,0,0,3,209,1,IN/Out, 2406apUp2.mat ,1,N/A,N/A0,4,60,2,1,1,1.284074,0,0,2,209,1,leading/trailing, 2406apUp2.mat ,1,N/A,N/A1,1,2,2,3,1,0.87820628,0,0,2,209,1,IN/Out, 2406apUp2.mat ,1,N/A,N/A0,3,6,1,1,1,1.8324325,0,0,2,209,1,leading/trailing, 2406apUp2.mat ,1,N/A,N/A1,4,660,3,7,1,1.2896464,0,0,3,209,1,leading/trailing, 2406apUp2.mat ,1,N/A,N/A1,3,73,1,7,1,3.8890384,0,0,3,209,1,leading/trailing, 2406apUp2.mat ,1,N/A,N/A0,4,80,2,1,1,1.0283294,0,0,2,209,1,leading/trailing, 2406apUp2.mat ,1,N/A,N/A1,2,10,1,7,1,1.8637852,0,0,2,209,1,IN/Out, 2406apUp2.mat ,1,N/A,N/A1,2,32,1,7,1,1.6312194,0,0,2,209,1,IN/Out, 2406apUp2.mat ,1,N/A,N/A1,4,150,3,4,1,0.98480368,0,0,3,209,1,leading/trailing, 2406apUp2.mat ,1,N/A,N/A0,3,6,1,1,0,1.4063563,0,0,2,209,1,leading/trailing, 2406apUp2.mat ,1,N/A,N/A0,1,6,3,2,1,4.8725445,0,0,3,209,1,IN/Out, 2406apUp2.mat ,1,N/A,N/A1,2,57,2,7,1,2.5225354,0,0,2,209,1,IN/Out, 2406apUp2.mat ,1,N/A,N/A1,2,85,2,7,0,0.78977577,0,0,2,209,1,IN/Out, 2406apUp2.mat ,1,N/A,N/A0,2,93,2,1,1,1.7194506,0,0,2,209,1,IN/Out, 2406apUp2.mat ,1,N/A,N/A1,2,307,2,4,1,2.7352728,0,0,3,209,1,IN/Out, 2406apUp2.mat ,1,N/A,N/A0,1,5,2,2,1,1.1225368,0,0,2,209,1,IN/Out, 2406apUp2.mat ,1,N/A,N/A1,4,370,3,4,1,1.0730327,0,0,3,209,1,leading/trailing, 2406apUp2.mat ,1,N/A,N/A1,4,90,2,5,1,1.0026018,0,0,2,209,1,leading/trailing, 2406apUp2.mat ,1,N/A,N/A1,1,51,2,3,1,0.62260056,0,0,2,209,1,IN/Out, 2406apUp2.mat ,1,N/A,N/A0,2,205,2,1,1,1.7711602,0,0,3,209,1,IN/Out, 2406apUp2.mat ,1,N/A,N/A0,3,1,1,1,1,0.62058839,0,0,2,209,1,leading/trailing, 2406apUp2.mat ,1,N/A,N/A0,1,437,3,2,1,1.8101394,0,0,3,209,1,IN/Out, 2406apUp2.mat ,1,N/A,N/A1,1,986,1,6,1,1.1158875,0,0,3,209,1,IN/Out, 2406apUp2.mat ,1,N/A,N/A1,1,2,2,4,1,0.82850977,0,0,2,209,1,IN/Out, 2406apUp2.mat ,1,N/A,N/A1,2,854,2,7,1,1.9657603,0,0,3,209,1,IN/Out, 2406apUp2.mat ,1,N/A,N/A0,1,76,2,2,1,1.8995402,0,0,3,209,1,IN/Out, 2406apUp2.mat ,1,N/A,N/A1,3,4,1,6,1,1.2504773,0,0,2,209,1,leading/trailing, 2406apUp2.mat ,1,N/A,N/A1,2,24,1,6,1,1.0124713,0,0,2,209,1,IN/Out, 2406apUp2.mat ,1,N/A,N/A0,3,86,1,1,1,2.3356527,0,0,3,209,1,leading/trailing, 2406apUp2.mat ,1,N/A,N/A1,2,9,1,6,1,1.6686819,0,0,2,209,1,IN/Out, 2406apUp2.mat ,1,N/A,N/A1,3,71,1,5,1,4.6361536,0,0,3,209,1,leading/trailing, 2406apUp2.mat ,1,N/A,N/A0,2,92,2,1,1,1.4644522,0,0,2,209,1,IN/Out, 2406apUp2.mat ,1,N/A,N/A0,3,86,1,1,1,3.7530557,0,0,3,209,1,leading/trailing, 2406apUp2.mat ,1,N/A,N/A1,4,160,3,5,1,1.1693893,0,0,3,209,1,leading/trailing, 2406apUp2.mat ,1,N/A,N/A1,3,1,1,6,0,0.86293256,0,0,2,209,1,leading/trailing, 2406apUp2.mat ,1,N/A,N/A1,3,68,1,5,1,2.8711239,0,0,3,209,1,leading/trailing, 2406apUp2.mat ,1,N/A,N/A1,2,79,1,7,1,1.2440343,0,0,2,209,1,IN/Out, 2406apUp2.mat ,1,N/A,N/A1,3,2,1,7,1,0.92624015,0,0,2,209,1,leading/trailing, 2406apUp2.mat ,1,N/A,N/A1,4,40,2,6,1,0.98131129,0,0,2,209,1,leading/trailing, 2406apUp2.mat ,1,N/A,N/A1,4,10,2,4,1,0.83585982,0,0,2,209,1,leading/trailing, 2406apUp2.mat ,1,N/A,N/A1,1,34,2,4,1,0.96005615,0,0,2,209,1,IN/Out, 2406apUp2.mat ,1,N/A,N/A1,1,998,3,5,0,1.5173994,0,0,3,209,1,IN/Out, 2406apUp2.mat ,1,N/A,N/A1,1,834,1,4,1,4.4433497,0,0,3,209,1,IN/Out, 2406apUp2.mat ,1,N/A,N/A1,3,67,1,7,1,2.6544837,0,0,3,209,1,leading/trailing, 2406apUp2.mat ,1,N/A,N/A0,4,160,3,1,1,2.0616058,0,0,3,209,1,leading/trailing, 2406apUp2.mat ,1,N/A,N/A1,4,350,3,7,1,0.84526751,0,0,3,209,1,leading/trailing, 2406apUp2.mat ,1,N/A,N/A0,1,614,1,2,1,4.0740107,0,0,3,210,1,IN/Out, 2407tbUp1.mat ,1,N/A,N/A1,1,941,2,3,1,0.93339966,0,0,3,210,1,IN/Out, 2407tbUp1.mat ,1,N/A,N/A1,2,571,3,6,1,1.3163616,0,0,3,210,1,IN/Out, 2407tbUp1.mat ,1,N/A,N/A1,2,325,2,6,1,1.3533229,0,0,3,210,1,IN/Out, 2407tbUp1.mat ,1,N/A,N/A1,1,307,1,4,1,1.3197139,0,0,3,210,1,IN/Out, 2407tbUp1.mat ,1,N/A,N/A1,4,20,2,4,1,0.75042552,0,0,2,210,1,leading/trailing, 2407tbUp1.mat ,1,N/A,N/A1,3,4,1,6,1,1.1119541,0,0,2,210,1,leading/trailing, 2407tbUp1.mat ,1,N/A,N/A1,3,3,1,6,1,0.72649828,0,0,2,210,1,leading/trailing, 2407tbUp1.mat ,1,N/A,N/A0,2,47,1,1,1,4.3591197,0,0,2,210,1,IN/Out, 2407tbUp1.mat ,1,N/A,N/A1,1,3,2,3,1,0.89466065,0,0,2,210,1,IN/Out, 2407tbUp1.mat ,1,N/A,N/A0,3,18,1,1,1,3.0527815,0,0,3,210,1,leading/trailing, 2407tbUp1.mat ,1,N/A,N/A1,1,292,2,5,1,1.9741358,0,0,3,210,1,IN/Out, 2407tbUp1.mat ,1,N/A,N/A1,3,3,1,4,1,1.2946776,0,0,2,210,1,leading/trailing, 2407tbUp1.mat ,1,N/A,N/A1,1,800,1,4,1,1.2404721,0,0,3,210,1,IN/Out, 2407tbUp1.mat ,1,N/A,N/A0,3,47,1,1,1,2.14589,0,0,3,210,1,leading/trailing, 2407tbUp1.mat ,1,N/A,N/A1,4,70,2,6,1,1.6545244,0,0,2,210,1,leading/trailing, 2407tbUp1.mat ,1,N/A,N/A1,2,993,3,7,1,1.8535898,0,0,3,210,1,IN/Out, 2407tbUp1.mat ,1,N/A,N/A1,4,40,2,4,1,1.5503025,0,0,2,210,1,leading/trailing, 2407tbUp1.mat ,1,N/A,N/A1,2,63,1,6,1,0.85180772,0,0,2,210,1,IN/Out, 2407tbUp1.mat ,1,N/A,N/A1,1,90,1,4,1,1.7103425,0,0,2,210,1,IN/Out, 2407tbUp1.mat ,1,N/A,N/A0,1,7,2,2,1,1.2850481,0,0,2,210,1,IN/Out, 2407tbUp1.mat ,1,N/A,N/A1,4,90,2,6,1,1.9913722,0,0,2,210,1,leading/trailing, 2407tbUp1.mat ,1,N/A,N/A1,2,770,1,7,1,1.9830701,0,0,3,210,1,IN/Out, 2407tbUp1.mat ,1,N/A,N/A0,4,60,2,1,1,1.6509154,0,0,2,210,1,leading/trailing, 2407tbUp1.mat ,1,N/A,N/A1,2,2,1,6,1,2.1794448,0,0,2,210,1,IN/Out, 2407tbUp1.mat ,1,N/A,N/A1,4,30,2,6,1,1.1105466,0,0,2,210,1,leading/trailing, 2407tbUp1.mat ,1,N/A,N/A1,4,430,3,6,1,1.0239826,0,0,3,210,1,leading/trailing, 2407tbUp1.mat ,1,N/A,N/A1,2,48,2,7,1,1.1387426,0,0,2,210,1,IN/Out, 2407tbUp1.mat ,1,N/A,N/A0,4,270,3,1,1,1.4947469,0,0,3,210,1,leading/trailing, 2407tbUp1.mat ,1,N/A,N/A1,2,466,2,7,1,2.3663305,0,0,3,210,1,IN/Out, 2407tbUp1.mat ,1,N/A,N/A1,3,37,1,7,1,0.95525544,0,0,3,210,1,leading/trailing, 2407tbUp1.mat ,1,N/A,N/A1,4,830,3,6,1,1.6899249,0,0,3,210,1,leading/trailing, 2407tbUp1.mat ,1,N/A,N/A1,3,13,1,7,1,2.4091373,0,0,3,210,1,leading/trailing, 2407tbUp1.mat ,1,N/A,N/A0,2,477,1,1,1,2.2734572,0,0,3,210,1,IN/Out, 2407tbUp1.mat ,1,N/A,N/A1,2,53,2,7,1,1.0328509,0,0,2,210,1,IN/Out, 2407tbUp1.mat ,1,N/A,N/A0,1,66,1,2,1,1.3647589,0,0,2,210,1,IN/Out, 2407tbUp1.mat ,1,N/A,N/A1,1,206,3,3,1,1.3927473,0,0,3,210,1,IN/Out, 2407tbUp1.mat ,1,N/A,N/A1,1,840,2,3,1,1.1890216,0,0,3,210,1,IN/Out, 2407tbUp1.mat ,1,N/A,N/A1,3,52,1,5,1,1.1289811,0,0,3,210,1,leading/trailing, 2407tbUp1.mat ,1,N/A,N/A1,2,47,1,7,1,2.1357437,0,0,3,210,1,IN/Out, 2407tbUp1.mat ,1,N/A,N/A1,4,430,3,7,1,1.1384961,0,0,3,210,1,leading/trailing, 2407tbUp1.mat ,1,N/A,N/A1,1,23,2,3,1,1.5936328,0,0,2,210,1,IN/Out, 2407tbUp1.mat ,1,N/A,N/A1,1,96,1,4,1,1.3104207,0,0,2,210,1,IN/Out, 2407tbUp1.mat ,1,N/A,N/A0,3,1,1,1,1,1.8055596,0,0,2,210,1,leading/trailing, 2407tbUp1.mat ,1,N/A,N/A0,2,800,2,1,1,2.8380305,0,0,3,210,1,IN/Out, 2407tbUp1.mat ,1,N/A,N/A1,1,221,1,4,1,1.9992281,0,0,3,210,1,IN/Out, 2407tbUp1.mat ,1,N/A,N/A1,2,58,2,7,1,1.3056163,0,0,2,210,1,IN/Out, 2407tbUp1.mat ,1,N/A,N/A1,3,3,1,7,1,0.68838735,0,0,2,210,1,leading/trailing, 2407tbUp1.mat ,1,N/A,N/A1,2,29,1,6,1,2.0590621,0,0,2,210,1,IN/Out, 2407tbUp1.mat ,1,N/A,N/A1,4,370,3,6,1,1.9382255,0,0,3,210,1,leading/trailing, 2407tbUp1.mat ,1,N/A,N/A1,2,183,3,7,1,2.0364443,0,0,3,210,1,IN/Out, 2407tbUp1.mat ,1,N/A,N/A0,2,833,3,1,1,2.2144549,0,0,3,210,1,IN/Out, 2407tbUp1.mat ,1,N/A,N/A1,3,51,1,4,1,1.6569162,0,0,3,210,1,leading/trailing, 2407tbUp1.mat ,1,N/A,N/A1,3,9,1,7,1,1.2104922,0,0,2,210,1,leading/trailing, 2407tbUp1.mat ,1,N/A,N/A1,3,1,1,7,1,1.7649673,0,0,2,210,1,leading/trailing, 2407tbUp1.mat ,1,N/A,N/A1,3,79,1,4,1,1.1371992,0,0,3,210,1,leading/trailing, 2407tbUp1.mat ,1,N/A,N/A1,4,50,2,7,1,1.8781071,0,0,2,210,1,leading/trailing, 2407tbUp1.mat ,1,N/A,N/A1,3,56,1,5,1,1.1511681,0,0,3,210,1,leading/trailing, 2407tbUp1.mat ,1,N/A,N/A1,1,250,1,4,1,1.1967986,0,0,3,210,1,IN/Out, 2407tbUp1.mat ,1,N/A,N/A1,1,855,1,3,1,1.0812013,0,0,3,210,1,IN/Out, 2407tbUp1.mat ,1,N/A,N/A1,2,36,2,7,1,1.9865895,0,0,2,210,1,IN/Out, 2407tbUp1.mat ,1,N/A,N/A1,3,16,1,6,1,2.5979153,0,0,3,210,1,leading/trailing, 2407tbUp1.mat ,1,N/A,N/A1,1,278,3,4,1,3.1337646,0,0,3,210,1,IN/Out, 2407tbUp1.mat ,1,N/A,N/A1,1,862,1,5,1,1.289043,0,0,3,210,1,IN/Out, 2407tbUp1.mat ,1,N/A,N/A1,4,260,3,5,1,1.1296224,0,0,3,210,1,leading/trailing, 2407tbUp1.mat ,1,N/A,N/A0,1,37,2,2,1,1.271495,0,0,2,210,1,IN/Out, 2407tbUp1.mat ,1,N/A,N/A1,4,450,3,6,1,1.3212061,0,0,3,210,1,leading/trailing, 2407tbUp1.mat ,1,N/A,N/A1,4,10,2,6,1,0.94335069,0,0,2,210,1,leading/trailing, 2407tbUp1.mat ,1,N/A,N/A0,1,651,2,2,1,1.4399477,0,0,3,210,1,IN/Out, 2407tbUp1.mat ,1,N/A,N/A1,4,70,2,7,1,1.0974937,0,0,2,210,1,leading/trailing, 2407tbUp1.mat ,1,N/A,N/A1,2,22,1,6,1,0.73765987,0,0,2,210,1,IN/Out, 2407tbUp1.mat ,1,N/A,N/A1,3,7,1,4,1,1.0566988,0,0,2,210,1,leading/trailing, 2407tbUp1.mat ,1,N/A,N/A1,1,8,2,3,1,0.91365637,0,0,2,210,1,IN/Out, 2407tbUp1.mat ,1,N/A,N/A1,3,99,1,5,1,1.8907398,0,0,3,210,1,leading/trailing, 2407tbUp1.mat ,1,N/A,N/A1,1,437,1,6,1,3.0265628,0,0,3,210,1,IN/Out, 2407tbUp1.mat ,1,N/A,N/A1,1,69,2,6,1,0.80985539,0,0,2,210,1,IN/Out, 2407tbUp1.mat ,1,N/A,N/A1,1,74,2,4,1,1.6134303,0,0,2,210,1,IN/Out, 2407tbUp1.mat ,1,N/A,N/A1,1,48,1,4,1,1.2799343,0,0,2,210,1,IN/Out, 2407tbUp1.mat ,1,N/A,N/A1,2,126,2,6,1,1.504934,0,0,3,210,1,IN/Out, 2407tbUp1.mat ,1,N/A,N/A1,4,480,3,7,1,2.1598287,0,0,3,210,1,leading/trailing, 2407tbUp1.mat ,1,N/A,N/A0,3,36,1,1,1,1.5949354,0,0,3,210,1,leading/trailing, 2407tbUp1.mat ,1,N/A,N/A1,4,790,3,7,1,0.79774043,0,0,3,210,1,leading/trailing, 2407tbUp1.mat ,1,N/A,N/A1,4,130,3,6,1,1.0033256,0,0,3,210,1,leading/trailing, 2407tbUp1.mat ,1,N/A,N/A0,1,795,2,2,1,1.3185903,0,0,3,210,1,IN/Out, 2407tbUp1.mat ,1,N/A,N/A1,2,8,1,7,1,1.9575756,0,0,2,210,1,IN/Out, 2407tbUp1.mat ,1,N/A,N/A0,4,150,3,1,1,3.1605304,0,0,3,210,1,leading/trailing, 2407tbUp1.mat ,1,N/A,N/A0,4,590,3,1,1,1.7774307,0,0,3,210,1,leading/trailing, 2407tbUp1.mat ,1,N/A,N/A1,2,676,2,7,1,1.2774943,0,0,3,210,1,IN/Out, 2407tbUp1.mat ,1,N/A,N/A0,2,34,1,1,1,1.1342907,0,0,2,210,1,IN/Out, 2407tbUp1.mat ,1,N/A,N/A0,3,99,1,1,1,1.548786,0,0,3,210,1,leading/trailing, 2407tbUp1.mat ,1,N/A,N/A1,4,10,2,5,1,2.0668492,0,0,2,210,1,leading/trailing, 2407tbUp1.mat ,1,N/A,N/A0,4,40,2,1,1,2.5297143,0,0,2,210,1,leading/trailing, 2407tbUp1.mat ,1,N/A,N/A0,3,8,1,1,1,1.40621,0,0,2,210,1,leading/trailing, 2407tbUp1.mat ,1,N/A,N/A0,3,1,1,1,1,0.88850206,0,0,2,210,1,leading/trailing, 2407tbUp1.mat ,1,N/A,N/A1,3,27,1,7,1,1.3462883,0,0,3,210,1,leading/trailing, 2407tbUp1.mat ,1,N/A,N/A1,3,5,1,6,1,1.4719085,0,0,2,210,1,leading/trailing, 2407tbUp1.mat ,1,N/A,N/A0,2,47,1,1,1,1.9042784,0,0,2,210,1,IN/Out, 2407tbUp1.mat ,1,N/A,N/A1,3,91,1,4,1,1.2867946,0,0,3,210,1,leading/trailing, 2407tbUp1.mat ,1,N/A,N/A1,4,10,2,6,1,0.94147297,0,0,2,210,1,leading/trailing, 2407tbUp1.mat ,1,N/A,N/A1,4,70,2,7,1,0.93389067,0,0,2,210,1,leading/trailing, 2407tbUp1.mat ,1,N/A,N/A1,2,81,1,7,1,1.8506403,0,0,2,210,1,IN/Out, 2407tbUp1.mat ,1,N/A,N/A1,1,38,2,5,1,1.9896883,0,0,2,210,1,IN/Out, 2407tbUp1.mat ,1,N/A,N/A1,4,630,3,7,1,1.19966,0,0,3,210,1,leading/trailing, 2407tbUp1.mat ,1,N/A,N/A0,4,60,2,1,1,1.3871286,0,0,2,210,1,leading/trailing, 2407tbUp1.mat ,1,N/A,N/A0,1,851,2,2,1,1.4084848,0,0,3,210,1,IN/Out, 2407tbUp1.mat ,1,N/A,N/A1,2,71,1,7,1,1.2193316,0,0,2,210,1,IN/Out, 2407tbUp1.mat ,1,N/A,N/A0,2,781,3,1,1,2.2377352,0,0,3,210,1,IN/Out, 2407tbUp1.mat ,1,N/A,N/A1,1,38,1,4,1,0.88415849,0,0,2,210,1,IN/Out, 2407tbUp1.mat ,1,N/A,N/A1,4,20,2,5,1,0.98929235,0,0,2,210,1,leading/trailing, 2407tbUp1.mat ,1,N/A,N/A0,3,2,1,1,1,1.1868768,0,0,2,210,1,leading/trailing, 2407tbUp1.mat ,1,N/A,N/A1,1,80,1,5,1,0.8161722,0,0,2,210,1,IN/Out, 2407tbUp1.mat ,1,N/A,N/A0,4,470,3,1,1,1.2510891,0,0,3,210,1,leading/trailing, 2407tbUp1.mat ,1,N/A,N/A1,2,365,2,5,1,1.1347807,0,0,3,210,1,IN/Out, 2407tbUp1.mat ,1,N/A,N/A1,3,1,1,5,1,1.9971612,0,0,2,210,1,leading/trailing, 2407tbUp1.mat ,1,N/A,N/A1,2,77,2,7,1,0.92753035,0,0,2,210,1,IN/Out, 2407tbUp1.mat ,1,N/A,N/A1,4,240,3,5,1,0.91838992,0,0,3,210,1,leading/trailing, 2407tbUp1.mat ,1,N/A,N/A1,3,1,1,5,1,2.5583322,0,0,2,210,1,leading/trailing, 2407tbUp1.mat ,1,N/A,N/A1,1,37,1,5,1,1.0330744,0,0,2,210,1,IN/Out, 2407tbUp1.mat ,1,N/A,N/A1,4,430,3,6,1,1.290116,0,0,3,210,1,leading/trailing, 2407tbUp1.mat ,1,N/A,N/A0,1,70,1,2,1,1.2512002,0,0,2,210,1,IN/Out, 2407tbUp1.mat ,1,N/A,N/A0,2,60,2,1,1,1.1489665,0,0,2,210,1,IN/Out, 2407tbUp1.mat ,1,N/A,N/A1,2,235,1,6,1,2.6029332,0,0,3,210,1,IN/Out, 2407tbUp1.mat ,1,N/A,N/A0,4,20,2,1,1,1.1729653,0,0,2,210,1,leading/trailing, 2407tbUp1.mat ,1,N/A,N/A1,3,47,1,7,1,3.2077413,0,0,3,210,1,leading/trailing, 2407tbUp1.mat ,1,N/A,N/A1,3,6,1,6,1,1.3511505,0,0,2,210,1,leading/trailing, 2407tbUp1.mat ,1,N/A,N/A1,3,27,1,7,1,1.9502505,0,0,3,210,1,leading/trailing, 2407tbUp1.mat ,1,N/A,N/A1,3,1,1,7,1,1.0089015,0,0,2,210,1,leading/trailing, 2407tbUp1.mat ,1,N/A,N/A1,2,537,3,7,1,1.0542854,0,0,3,210,1,IN/Out, 2407tbUp1.mat ,1,N/A,N/A1,4,320,3,6,1,3.5156227,0,0,3,211,1,leading/trailing, 2408ppUp1.mat ,1,N/A,N/A1,1,62,2,3,1,0.60876883,0,0,2,211,1,IN/Out, 2408ppUp1.mat ,1,N/A,N/A0,1,748,3,2,1,2.1379362,0,0,3,211,1,IN/Out, 2408ppUp1.mat ,1,N/A,N/A1,3,29,1,7,1,0.94044646,0,0,3,211,1,leading/trailing, 2408ppUp1.mat ,1,N/A,N/A1,2,20,1,6,1,0.68042767,0,0,2,211,1,IN/Out, 2408ppUp1.mat ,1,N/A,N/A1,4,30,2,4,1,0.54208444,0,0,2,211,1,leading/trailing, 2408ppUp1.mat ,1,N/A,N/A1,3,72,1,7,1,1.0319246,0,0,3,211,1,leading/trailing, 2408ppUp1.mat ,1,N/A,N/A1,4,820,3,5,1,0.92614812,0,0,3,211,1,leading/trailing, 2408ppUp1.mat ,1,N/A,N/A0,2,31,2,1,1,2.4248047,0,0,2,211,1,IN/Out, 2408ppUp1.mat ,1,N/A,N/A0,4,570,3,1,1,0.60186881,0,0,3,211,1,leading/trailing, 2408ppUp1.mat ,1,N/A,N/A1,2,9,1,5,1,1.0405741,0,0,2,211,1,IN/Out, 2408ppUp1.mat ,1,N/A,N/A1,4,520,3,6,1,3.4775425,0,0,3,211,1,leading/trailing, 2408ppUp1.mat ,1,N/A,N/A1,4,10,2,4,1,1.7135546,0,0,2,211,1,leading/trailing, 2408ppUp1.mat ,1,N/A,N/A1,1,41,1,5,1,1.1014303,0,0,2,211,1,IN/Out, 2408ppUp1.mat ,1,N/A,N/A1,3,43,1,4,1,1.7148175,0,0,3,211,1,leading/trailing, 2408ppUp1.mat ,1,N/A,N/A1,1,1,2,3,1,1.0137724,0,0,2,211,1,IN/Out, 2408ppUp1.mat ,1,N/A,N/A1,1,126,2,4,1,1.2610069,0,0,3,211,1,IN/Out, 2408ppUp1.mat ,1,N/A,N/A1,4,60,2,6,1,0.77884018,0,0,2,211,1,leading/trailing, 2408ppUp1.mat ,1,N/A,N/A1,4,10,2,7,1,0.87404284,0,0,2,211,1,leading/trailing, 2408ppUp1.mat ,1,N/A,N/A1,1,692,2,5,1,1.0064327,0,0,3,211,1,IN/Out, 2408ppUp1.mat ,1,N/A,N/A0,1,45,2,2,1,1.3818958,0,0,2,211,1,IN/Out, 2408ppUp1.mat ,1,N/A,N/A0,1,728,1,2,1,1.2064356,0,0,3,211,1,IN/Out, 2408ppUp1.mat ,1,N/A,N/A1,2,84,1,5,0,2.1331481,0,0,3,211,1,IN/Out, 2408ppUp1.mat ,1,N/A,N/A0,1,703,1,2,1,1.7352884,0,0,3,211,1,IN/Out, 2408ppUp1.mat ,1,N/A,N/A1,2,81,2,7,0,1.1363397,0,0,2,211,1,IN/Out, 2408ppUp1.mat ,1,N/A,N/A1,4,70,2,6,1,0.80396929,0,0,2,211,1,leading/trailing, 2408ppUp1.mat ,1,N/A,N/A0,3,6,1,1,1,1.4430663,0,0,2,211,1,leading/trailing, 2408ppUp1.mat ,1,N/A,N/A1,3,9,1,7,1,1.249644,0,0,2,211,1,leading/trailing, 2408ppUp1.mat ,1,N/A,N/A1,2,22,1,7,1,1.270104,0,0,2,211,1,IN/Out, 2408ppUp1.mat ,1,N/A,N/A1,2,11,2,6,1,1.2027567,0,0,2,211,1,IN/Out, 2408ppUp1.mat ,1,N/A,N/A0,4,90,2,1,1,1.6798378,0,0,2,211,1,leading/trailing, 2408ppUp1.mat ,1,N/A,N/A1,1,542,2,4,1,0.88349299,0,0,3,211,1,IN/Out, 2408ppUp1.mat ,1,N/A,N/A1,3,64,1,4,1,0.88454256,0,0,3,211,1,leading/trailing, 2408ppUp1.mat ,1,N/A,N/A